File: literature/rawdata/engstfeld_2018_polycrystalline_17743/1708030001Cu100_UHV_C01_cycle31.csv
E,<I>,I (raw),j,j
V vs. RHE,mA,\g(m)A,\g(m)A/cm\+(-2),mA/cm\+(-2)
-0.195448,-0.00257017,-2.57017,-16.9031,-0.0169031
-0.19693,-0.00248578,-2.48578,-16.3481,-0.0163481
-0.1984611,-0.00193268,-1.93268,-12.7106,-0.0127106
-0.198337,-0.000922273,-0.922273,-6.06547,-0.00606547
-0.196655,-0.000218963,-0.218963,-1.44004,-0.00144004
-0.194423,2.83091e-05,0.0283091,0.186179,0.000186179
-0.192208,7.07941e-05,0.0707941,0.465588,0.000465588
-0.190151,0.000132559,0.132559,0.871795,0.000871795
-0.188167,0.000237764,0.237764,1.56369,0.00156369
-0.1862,0.000370284,0.370284,2.43523,0.00243523
-0.184225,0.00049164,0.49164,3.23334,0.00323334
-0.1822207,0.000599788,0.599788,3.9446,0.0039446
-0.180223,0.000711331,0.711331,4.67818,0.00467818
-0.178207,0.000833323,0.833323,5.48047,0.00548047
-0.176189,0.000946881,0.946881,6.22731,0.00622731
-0.174201,0.00108285,1.08285,7.12152,0.00712152
-0.172228,0.00122404,1.22404,8.05009,0.00805009
-0.17027,0.00137515,1.37515,9.0439,0.0090439
-0.168273,0.00153496,1.53496,10.0949,0.0100949
-0.166275,0.00168424,1.68424,11.0767,0.0110767
-0.1642468,0.00182527,1.82527,12.0042,0.0120042
-0.162263,0.00196262,1.96262,12.9075,0.0129075
-0.1602702,0.00208753,2.08753,13.729,0.013729
-0.1582516,0.00222247,2.22247,14.6164,0.0146164
-0.156244,0.00232314,2.32314,15.2784,0.0152784
-0.154276,0.00243269,2.43269,15.9989,0.0159989
-0.152331,0.00253089,2.53089,16.6448,0.0166448
-0.150333,0.00261899,2.61899,17.2242,0.0172242
-0.148324,0.00269778,2.69778,17.7424,0.0177424
-0.146306,0.00275907,2.75907,18.1454,0.0181454
-0.144282,0.00282113,2.82113,18.5536,0.0185536
-0.142299,0.00286274,2.86274,18.8272,0.0188272
-0.140341,0.00291785,2.91785,19.1897,0.0191897
-0.138332,0.0029302,2.9302,19.2709,0.0192709
-0.136322,0.00292588,2.92588,19.2425,0.0192425
-0.134323,0.00293904,2.93904,19.329,0.019329
-0.132307,0.00293447,2.93447,19.299,0.019299
-0.130316,0.0029193,2.9193,19.1992,0.0191992
-0.128334,0.00290225,2.90225,19.0871,0.0190871
-0.126318,0.00287451,2.87451,18.9047,0.0189047
-0.1243118,0.0028363,2.8363,18.6533,0.0186533
-0.122323,0.00280071,2.80071,18.4193,0.0184193
-0.120326,0.00275851,2.75851,18.1418,0.0181418
-0.1183076,0.0027098,2.7098,17.8214,0.0178214
-0.116305,0.00262419,2.62419,17.2584,0.0172584
-0.11426,0.00254821,2.54821,16.7587,0.0167587
-0.112278,0.00248721,2.48721,16.3575,0.0163575
-0.110318,0.00242839,2.42839,15.9707,0.0159707
-0.108313,0.00237933,2.37933,15.648,0.015648
-0.106326,0.00229038,2.29038,15.063,0.015063
-0.104298,0.00219048,2.19048,14.406,0.014406
-0.102323,0.00211124,2.11124,13.8849,0.0138849
-0.100343,0.0020433,2.0433,13.438,0.013438
-0.0983379,0.00197068,1.97068,12.9605,0.0129605
-0.0963057,0.00192478,1.92478,12.6586,0.0126586
-0.0942734,0.00185164,1.85164,12.1776,0.0121776
-0.0922686,0.00176531,1.76531,11.6099,0.0116099
-0.0903001,0.00168448,1.68448,11.0782,0.0110782
-0.0883303,0.00162428,1.62428,10.6823,0.0106823
-0.086324,0.00156403,1.56403,10.2861,0.0102861
-0.0843417,0.00151833,1.51833,9.98555,0.00998555
-0.08235769,0.00145527,1.45527,9.5708,0.0095708
-0.0803661,0.00140597,1.40597,9.24656,0.00924656
-0.0783712,0.00135134,1.35134,8.88727,0.00888727
-0.07634712,0.00129596,1.29596,8.5231,0.0085231
-0.0743368,0.00124144,1.24144,8.16451,0.00816451
-0.0723481,0.00120187,1.20187,7.90429,0.00790429
-0.0703397,0.0011653,1.1653,7.66377,0.00766377
-0.06833832,0.00114257,1.14257,7.5143,0.0075143
-0.0663357,0.00110505,1.10505,7.26751,0.00726751
-0.0643504,0.00104702,1.04702,6.88589,0.00688589
-0.0623579,0.00100753,1.00753,6.62619,0.00662619
-0.0603518,0.000975232,0.975232,6.41376,0.00641376
-0.0583398,0.000952291,0.952291,6.26289,0.00626289
-0.0563407,0.000945529,0.945529,6.21841,0.00621841
-0.05436204,0.000926408,0.926408,6.09266,0.00609266
-0.0523167,0.000902354,0.902354,5.93447,0.00593447
-0.0503187,0.000866791,0.866791,5.70058,0.00570058
-0.0483213,0.000809747,0.809747,5.32542,0.00532542
-0.0463543,0.000801525,0.801525,5.27135,0.00527135
-0.044361,0.000788875,0.788875,5.18816,0.00518816
-0.0423377,0.000749652,0.749652,4.9302,0.0049302
-0.040331,0.000724352,0.724352,4.76381,0.00476381
-0.0383531,0.000735411,0.735411,4.83654,0.00483654
-0.0363655,0.000744454,0.744454,4.89602,0.00489602
-0.0343658,0.000716635,0.716635,4.71306,0.00471306
-0.0323521,0.000679083,0.679083,4.46609,0.00446609
-0.030332,0.000667706,0.667706,4.39127,0.00439127
-0.0283589,0.000653332,0.653332,4.29673,0.00429673
-0.0263776,0.000625539,0.625539,4.11395,0.00411395
-0.02434779,0.000594351,0.594351,3.90884,0.00390884
-0.02236761,0.000565392,0.565392,3.71838,0.00371838
-0.0203539,0.000554227,0.554227,3.64495,0.00364495
-0.0183543,0.000536684,0.536684,3.52959,0.00352959
-0.0163795,0.000522429,0.522429,3.43583,0.00343583
-0.0144076,0.000521289,0.521289,3.42833,0.00342833
-0.0123693,0.000511742,0.511742,3.36555,0.00336555
-0.0103898,0.000496864,0.496864,3.2677,0.0032677
-0.00837753,0.00046443,0.46443,3.05439,0.00305439
-0.00640244,0.00044873,0.44873,2.95114,0.00295114
-0.004409953,0.000445017,0.445017,2.92672,0.00292672
-0.00239985,0.000438255,0.438255,2.88225,0.00288225
-0.000403328,0.000433428,0.433428,2.85051,0.00285051
0.00163139,0.000430325,0.430325,2.8301,0.0028301
0.00362685,0.000431704,0.431704,2.83917,0.00283917
0.00561807,0.000419611,0.419611,2.75964,0.00275964
0.00761819,0.000408791,0.408791,2.68848,0.00268848
0.00959837,0.000415713,0.415713,2.734,0.002734
0.0115764,0.000390254,0.390254,2.56656,0.00256656
0.0135738,0.000381237,0.381237,2.50726,0.00250726
0.0155521,0.000386541,0.386541,2.54214,0.00254214
0.0175323,0.000394948,0.394948,2.59743,0.00259743
0.0195545,0.000385003,0.385003,2.53203,0.00253203
0.0216028,0.000373758,0.373758,2.45808,0.00245808
0.0236144,0.000364581,0.364581,2.39772,0.00239772
0.0255879,0.000349333,0.349333,2.29744,0.00229744
0.0275726,0.00035172,0.35172,2.31314,0.00231314
0.029574,0.000364795,0.364795,2.39913,0.00239913
0.0315714,0.000362912,0.362912,2.38674,0.00238674
0.03354007,0.000371716,0.371716,2.44465,0.00244465
0.0355504,0.00038853,0.38853,2.55523,0.00255523
0.0375764,0.000411894,0.411894,2.70888,0.00270888
0.0395806,0.000403514,0.403514,2.65377,0.00265377
0.0415677,0.000419081,0.419081,2.75615,0.00275615
0.0435581,0.000420619,0.420619,2.76626,0.00276626
0.04557246,0.000426957,0.426957,2.80795,0.00280795
0.0475709,0.000439926,0.439926,2.89324,0.00289324
0.0495825,0.000456898,0.456898,3.00486,0.00300486
0.0515852,0.000434171,0.434171,2.85539,0.00285539
0.0535846,0.000420513,0.420513,2.76557,0.00276557
0.0555691,0.000430564,0.430564,2.83167,0.00283167
0.0575866,0.000414785,0.414785,2.72789,0.00272789
0.0595594,0.000392641,0.392641,2.58226,0.00258226
0.0615631,0.000371928,0.371928,2.44604,0.00244604
0.0635157,0.000363946,0.363946,2.39354,0.00239354
0.0655176,0.000361685,0.361685,2.37867,0.00237867
0.0675348,0.000335835,0.335835,2.20867,0.00220867
0.0695661,0.000314486,0.314486,2.06827,0.00206827
0.0715854,0.00031202,0.31202,2.05205,0.00205205
0.0735568,0.000312205,0.312205,2.05327,0.00205327
0.0755597,0.000310269,0.310269,2.04053,0.00204053
0.0775866,0.00030653,0.30653,2.01594,0.00201594
0.0795555,0.000317244,0.317244,2.0864,0.0020864
0.08152,0.000324245,0.324245,2.13245,0.00213245
0.0835473,0.000312815,0.312815,2.05728,0.00205728
0.0855506,0.000331989,0.331989,2.18338,0.00218338
0.0875416,0.000348379,0.348379,2.29116,0.00229116
0.089557,0.000346655,0.346655,2.27983,0.00227983
0.09154591,0.000322787,0.322787,2.12286,0.00212286
0.0935308,0.000283829,0.283829,1.86664,0.00186664
0.0955449,0.000270092,0.270092,1.7763,0.0017763
0.0975367,0.00029091,0.29091,1.91321,0.00191321
0.0995063,0.000283564,0.283564,1.8649,0.0018649
0.101498,0.000272293,0.272293,1.79078,0.00179078
0.103527,0.000286322,0.286322,1.88304,0.00188304
0.105566,0.000286216,0.286216,1.88234,0.00188234
0.107547,0.000282715,0.282715,1.85932,0.00185932
0.109518,0.000286561,0.286561,1.88461,0.00188461
0.111503,0.000278949,0.278949,1.83455,0.00183455
0.113513,0.000290618,0.290618,1.91129,0.00191129
0.1155256,0.00029998,0.29998,1.97286,0.00197286
0.117551,0.000298866,0.298866,1.96554,0.00196554
0.119543,0.000314964,0.314964,2.07141,0.00207141
0.121529,0.000290671,0.290671,1.91164,0.00191164
0.123507,0.000275077,0.275077,1.80909,0.00180909
0.125504,0.000266034,0.266034,1.74961,0.00174961
0.127475,0.000259882,0.259882,1.70915,0.00170915
0.1294813,0.000259722,0.259722,1.7081,0.0017081
0.131474,0.000264814,0.264814,1.74159,0.00174159
0.133476,0.000250202,0.250202,1.64549,0.00164549
0.135501,0.000259192,0.259192,1.70462,0.00170462
0.137516,0.000279639,0.279639,1.83909,0.00183909
0.139509,0.000283431,0.283431,1.86403,0.00186403
0.141505,0.000282662,0.282662,1.85897,0.00185897
0.143525,0.000269429,0.269429,1.77194,0.00177194
0.145528,0.000263541,0.263541,1.73322,0.00173322
0.147496,0.000254286,0.254286,1.67235,0.00167235
0.149494,0.00025837,0.25837,1.69921,0.00169921
0.151462,0.000275502,0.275502,1.81188,0.00181188
0.153513,0.000269217,0.269217,1.77054,0.00177054
0.1555413,0.000259272,0.259272,1.70514,0.00170514
0.157562,0.000251448,0.251448,1.65369,0.00165369
0.159543,0.000242246,0.242246,1.59317,0.00159317
0.16151,0.000244447,0.244447,1.60764,0.00160764
0.163491,0.000277517,0.277517,1.82513,0.00182513
0.165497,0.000286879,0.286879,1.8867,0.0018867
0.167473,0.000278552,0.278552,1.83194,0.00183194
0.169443,0.000280292,0.280292,1.84338,0.00184338
0.171463,0.000259139,0.259139,1.70427,0.00170427
0.173487,0.000246277,0.246277,1.61968,0.00161968
0.175465,0.000237472,0.237472,1.56177,0.00156177
0.177489,0.000234635,0.234635,1.54311,0.00154311
0.179524,0.000235112,0.235112,1.54625,0.00154625
0.181522,0.000242246,0.242246,1.59317,0.00159317
0.183507,0.000259749,0.259749,1.70828,0.00170828
0.185442,0.000247152,0.247152,1.62543,0.00162543
0.18743,0.000262215,0.262215,1.7245,0.0017245
0.189448,0.000267493,0.267493,1.75921,0.00175921
0.191456,0.000241556,0.241556,1.58863,0.00158863
0.193454,0.000219704,0.219704,1.44492,0.00144492
0.1955059,0.000230736,0.230736,1.51747,0.00151747
0.197512,0.000221215,0.221215,1.45486,0.00145486
0.1995,0.000209918,0.209918,1.38056,0.00138056
0.2015,0.000211668,0.211668,1.39207,0.00139207
0.203469,0.00023429,0.23429,1.54084,0.00154084
0.205441,0.000223496,0.223496,1.46986,0.00146986
0.2074659,0.000217874,0.217874,1.43288,0.00143288
0.209435,0.000221348,0.221348,1.45573,0.00145573
0.211409,0.000219437,0.219437,1.44316,0.00144316
0.2134279,0.00020541,0.20541,1.35091,0.00135091
0.21544,0.000216734,0.216734,1.42538,0.00142538
0.217432,0.000223867,0.223867,1.4723,0.0014723
0.219424,0.000221719,0.221719,1.45817,0.00145817
0.221465,0.000198223,0.198223,1.30364,0.00130364
0.223455,0.000225061,0.225061,1.48015,0.00148015
0.225445,0.00023307,0.23307,1.53282,0.00153282
0.22743,0.000219094,0.219094,1.4409,0.0014409
0.2294094,0.000206603,0.206603,1.35876,0.00135876
0.231406,0.00020655,0.20655,1.35841,0.00135841
0.233393,0.000203208,0.203208,1.33643,0.00133643
0.235414,0.000205913,0.205913,1.35422,0.00135422
0.237444,0.000214267,0.214267,1.40916,0.00140916
0.2394236,0.000212676,0.212676,1.3987,0.0013987
0.241416,0.000230657,0.230657,1.51695,0.00151695
0.2433982,0.000234369,0.234369,1.54137,0.00154137
0.245367,0.00023543,0.23543,1.54834,0.00154834
0.24736,0.000231266,0.231266,1.52096,0.00152096
0.249394,0.00022286,0.22286,1.46567,0.00146567
0.251413,0.000226944,0.226944,1.49253,0.00149253
0.253439,0.000207858,0.207858,1.36701,0.00136701
0.255439,0.000205118,0.205118,1.34899,0.00134899
0.257449,0.000221931,0.221931,1.45957,0.00145957
0.25943,0.000244712,0.244712,1.60939,0.00160939
0.261424,0.000254127,0.254127,1.6713,0.0016713
0.2634334,0.000257389,0.257389,1.69276,0.00169276
0.265455,0.000244102,0.244102,1.60537,0.00160537
0.267432,0.000239435,0.239435,1.57468,0.00157468
0.269408,0.000242113,0.242113,1.59229,0.00159229
0.2713953,0.00024511,0.24511,1.612,0.001612
0.2733795,0.000247046,0.247046,1.62473,0.00162473
0.275369,0.000267891,0.267891,1.76182,0.00176182
0.27734,0.000275131,0.275131,1.80944,0.00180944
0.279356,0.000281734,0.281734,1.85287,0.00185287
0.281394,0.000275555,0.275555,1.81223,0.00181223
0.283406,0.000295339,0.295339,1.94234,0.00194234
0.285392,0.000285553,0.285553,1.87798,0.00187798
0.2873821,0.000273301,0.273301,1.7974,0.0017974
0.289389,0.000306875,0.306875,2.01821,0.00201821
0.291375,0.000306424,0.306424,2.01524,0.00201524
0.293392,0.000297566,0.297566,1.95699,0.00195699
0.295392,0.000284412,0.284412,1.87048,0.00187048
0.2973851,0.000289478,0.289478,1.90379,0.00190379
0.299425,0.000286693,0.286693,1.88548,0.00188548
0.301413,0.00029091,0.29091,1.91321,0.00191321
0.303377,0.000312046,0.312046,2.05222,0.00205222
0.305375,0.000345461,0.345461,2.27198,0.00227198
0.307369,0.000345329,0.345329,2.27111,0.00227111
0.309365,0.000346814,0.346814,2.28087,0.00228087
0.311372,0.000332599,0.332599,2.18739,0.00218739
0.313404,0.000318464,0.318464,2.09443,0.00209443
0.315348,0.000317085,0.317085,2.08536,0.00208536
0.317304,0.000340582,0.340582,2.23989,0.00223989
0.319321,0.000362275,0.362275,2.38256,0.00238256
0.321351,0.000375005,0.375005,2.46628,0.00246628
0.323348,0.000361135,0.361135,2.37506,0.00237506
0.325352,0.000361798,0.361798,2.37942,0.00237942
0.327321,0.000374209,0.374209,2.46104,0.00246104
0.329328,0.000393144,0.393144,2.58557,0.00258557
0.3313722,0.000397494,0.397494,2.61418,0.00261418
0.3333753,0.000404972,0.404972,2.66336,0.00266336
0.33539,0.000411814,0.411814,2.70836,0.00270836
0.337365,0.000427756,0.427756,2.8132,0.0028132
0.339359,0.000440403,0.440403,2.89638,0.00289638
0.341362,0.000475834,0.475834,3.12939,0.00312939
0.343357,0.00049758,0.49758,3.27241,0.00327241
0.345351,0.000505165,0.505165,3.32229,0.00332229
0.347336,0.000526619,0.526619,3.46339,0.00346339
0.349322,0.000540648,0.540648,3.55566,0.00355566
0.351326,0.000547623,0.547623,3.60153,0.00360153
0.3533397,0.000594219,0.594219,3.90797,0.00390797
0.355333,0.000667785,0.667785,4.39179,0.00439179
0.357327,0.000747849,0.747849,4.91834,0.00491834
0.359316,0.000782696,0.782696,5.14752,0.00514752
0.361303,0.000803514,0.803514,5.28443,0.00528443
0.36329,0.000804124,0.804124,5.28845,0.00528845
0.365322,0.000801658,0.801658,5.27222,0.00527222
0.367281,0.000820249,0.820249,5.39449,0.00539449
0.369307,0.000833005,0.833005,5.47838,0.00547838
0.371315,0.000850402,0.850402,5.5928,0.0055928
0.373283,0.000878805,0.878805,5.77959,0.00577959
0.375288,0.000896732,0.896732,5.89749,0.00589749
0.377313,0.00091336,0.91336,6.00685,0.00600685
0.37931,0.00094479,0.94479,6.21355,0.00621355
0.381258,0.000963006,0.963006,6.33335,0.00633335
0.383282,0.000984725,0.984725,6.47619,0.00647619
0.385252,0.00101387,1.01387,6.66787,0.00666787
0.387238,0.00105909,1.05909,6.96525,0.00696525
0.389266,0.00111054,1.11054,7.30361,0.00730361
0.391229,0.00115469,1.15469,7.59401,0.00759401
0.393255,0.00120651,1.20651,7.93481,0.00793481
0.395256,0.00123913,1.23913,8.14934,0.00814934
0.395896,0.00125109,1.25109,8.228,0.008228
0.396556,0.00127069,1.27069,8.35689,0.00835689
0.398464,0.00111544,1.11544,7.33587,0.00733587
0.399309,-3.57631e-05,-0.0357631,-0.235202,-0.000235202
0.39825,-0.00122171,-1.22171,-8.03476,-0.00803476
0.396127,-0.00161174,-1.61174,-10.5998,-0.0105998
0.393849,-0.00155406,-1.55406,-10.2205,-0.0102205
0.391709,-0.00142652,-1.42652,-9.38175,-0.00938175
0.3896881,-0.00137484,-1.37484,-9.04182,-0.00904182
0.387723,-0.00135759,-1.35759,-8.92838,-0.00892838
0.385747,-0.00133132,-1.33132,-8.75561,-0.00875561
0.383765,-0.00131861,-1.31861,-8.67206,-0.00867206
0.381763,-0.00132678,-1.32678,-8.72578,-0.00872578
0.379771,-0.00131917,-1.31917,-8.67572,-0.00867572
0.377785,-0.00129154,-1.29154,-8.49399,-0.00849399
0.375793,-0.00126274,-1.26274,-8.30457,-0.00830457
0.373778,-0.00124598,-1.24598,-8.19435,-0.00819435
0.371779,-0.00123489,-1.23489,-8.12144,-0.00812144
0.369804,-0.00119813,-1.19813,-7.87971,-0.00787971
0.367795,-0.00120341,-1.20341,-7.91441,-0.00791441
0.365813,-0.00120153,-1.20153,-7.90203,-0.00790203
0.363813,-0.00120864,-1.20864,-7.94877,-0.00794877
0.361806,-0.00121259,-1.21259,-7.97476,-0.00797476
0.359814,-0.00119787,-1.19787,-7.87796,-0.00787796
0.357824,-0.00117169,-1.17169,-7.70582,-0.00770582
0.355838,-0.00116257,-1.16257,-7.64582,-0.00764582
0.353865,-0.0011556,-1.1556,-7.59995,-0.00759995
0.351866,-0.00115758,-1.15758,-7.61303,-0.00761303
0.349841,-0.00114602,-1.14602,-7.53699,-0.00753699
0.347816,-0.00112987,-1.12987,-7.43077,-0.00743077
0.345809,-0.00110403,-1.10403,-7.26083,-0.00726083
0.343817,-0.0010169,-1.0169,-6.68777,-0.00668777
0.341825,-0.000965394,-0.965394,-6.34906,-0.00634906
0.339838,-0.000953619,-0.953619,-6.27162,-0.00627162
0.337841,-0.000934578,-0.934578,-6.14639,-0.00614639
0.335848,-0.000930414,-0.930414,-6.11901,-0.00611901
0.333824,-0.000911108,-0.911108,-5.99204,-0.00599204
0.331837,-0.000901163,-0.901163,-5.92663,-0.00592663
0.32982,-0.000890581,-0.890581,-5.85704,-0.00585704
0.327847,-0.00089265,-0.89265,-5.87065,-0.00587065
0.325854,-0.000881936,-0.881936,-5.80018,-0.00580018
0.32385,-0.000885781,-0.885781,-5.82547,-0.00582547
0.321847,-0.000871832,-0.871832,-5.73373,-0.00573373
0.319857,-0.000835844,-0.835844,-5.49705,-0.00549705
0.317839,-0.000815291,-0.815291,-5.36189,-0.00536189
0.31586,-0.000817943,-0.817943,-5.37933,-0.00537933
0.313865,-0.000812719,-0.812719,-5.34497,-0.00534497
0.3118501,-0.000829851,-0.829851,-5.45764,-0.00545764
0.309861,-0.000841069,-0.841069,-5.53141,-0.00553141
0.30785,-0.000846558,-0.846558,-5.56752,-0.00556752
0.305884,-0.000835314,-0.835314,-5.49357,-0.00549357
0.303856,-0.000811081,-0.811081,-5.33419,-0.00533419
0.301882,-0.000805638,-0.805638,-5.2984,-0.0052984
0.299905,-0.000816113,-0.816113,-5.36729,-0.00536729
0.29788,-0.000828127,-0.828127,-5.4463,-0.0054463
0.295918,-0.000819959,-0.819959,-5.39258,-0.00539258
0.293916,-0.000809881,-0.809881,-5.3263,-0.0053263
0.291935,-0.000811313,-0.811313,-5.33572,-0.00533572
0.289886,-0.000805532,-0.805532,-5.2977,-0.0052977
0.287878,-0.000807972,-0.807972,-5.31375,-0.00531375
0.285893,-0.000801474,-0.801474,-5.27102,-0.00527102
0.283885,-0.000794897,-0.794897,-5.22776,-0.00522776
0.281896,-0.000808688,-0.808688,-5.31846,-0.00531846
0.279905,-0.000784979,-0.784979,-5.16253,-0.00516253
0.27792,-0.000758353,-0.758353,-4.98742,-0.00498742
0.2759276,-0.000766866,-0.766866,-5.04341,-0.00504341
0.273909,-0.000798424,-0.798424,-5.25096,-0.00525096
0.271904,-0.000821629,-0.821629,-5.40357,-0.00540357
0.269896,-0.000833113,-0.833113,-5.47909,-0.00547909
0.267914,-0.000823778,-0.823778,-5.4177,-0.0054177
0.265893,-0.000800467,-0.800467,-5.26439,-0.00526439
0.263907,-0.0007823,-0.7823,-5.14492,-0.00514492
0.261937,-0.000798084,-0.798084,-5.24872,-0.00524872
0.259963,-0.000800281,-0.800281,-5.26317,-0.00526317
0.257984,-0.000813912,-0.813912,-5.35282,-0.00535282
0.255986,-0.000827411,-0.827411,-5.44159,-0.00544159
0.253967,-0.000831521,-0.831521,-5.46863,-0.00546863
0.2519477,-0.000812241,-0.812241,-5.34183,-0.00534183
0.249953,-0.000802853,-0.802853,-5.28009,-0.00528009
0.247957,-0.000798902,-0.798902,-5.2541,-0.0052541
0.245931,-0.00082216,-0.82216,-5.40706,-0.00540706
0.243905,-0.000819349,-0.819349,-5.38857,-0.00538857
0.241945,-0.000801978,-0.801978,-5.27433,-0.00527433
0.239994,-0.000810226,-0.810226,-5.32857,-0.00532857
0.237983,-0.000822054,-0.822054,-5.40636,-0.00540636
0.235978,-0.000830036,-0.830036,-5.45886,-0.00545886
0.23394,-0.000827782,-0.827782,-5.44403,-0.00544403
0.231895,-0.000825501,-0.825501,-5.42903,-0.00542903
0.2299,-0.000814045,-0.814045,-5.35369,-0.00535369
0.227903,-0.000797788,-0.797788,-5.24677,-0.00524677
0.22593,-0.000813435,-0.813435,-5.34968,-0.00534968
0.22394,-0.000819269,-0.819269,-5.38805,-0.00538805
0.221943,-0.000841254,-0.841254,-5.53263,-0.00553263
0.219926,-0.000858537,-0.858537,-5.6463,-0.0056463
0.217985,-0.000853878,-0.853878,-5.61566,-0.00561566
0.215977,-0.00085462,-0.85462,-5.62054,-0.00562054
0.213945,-0.00086491,-0.86491,-5.68821,-0.00568821
0.211937,-0.000851968,-0.851968,-5.6031,-0.0056031
0.209943,-0.000851464,-0.851464,-5.59978,-0.00559978
0.207945,-0.000849237,-0.849237,-5.58513,-0.00558513
0.205955,-0.000850298,-0.850298,-5.59211,-0.00559211
0.203988,-0.000841546,-0.841546,-5.53455,-0.00553455
0.2019653,-0.000836613,-0.836613,-5.50211,-0.00550211
0.200013,-0.00084868,-0.84868,-5.58147,-0.00558147
0.198029,-0.000871805,-0.871805,-5.73356,-0.00573356
0.195979,-0.000907475,-0.907475,-5.96814,-0.00596814
0.19393,-0.000920337,-0.920337,-6.05273,-0.00605273
0.191945,-0.000905512,-0.905512,-5.95524,-0.00595524
0.18997,-0.000881777,-0.881777,-5.79914,-0.00579914
0.188011,-0.000892623,-0.892623,-5.87047,-0.00587047
0.185988,-0.000901322,-0.901322,-5.92768,-0.00592768
0.18399,-0.000900818,-0.900818,-5.92437,-0.00592437
0.18198,-0.00090835,-0.90835,-5.9739,-0.0059739
0.180003,-0.000915192,-0.915192,-6.0189,-0.0060189
0.17802,-0.000914069,-0.914069,-6.01151,-0.00601151
0.176032,-0.000910471,-0.910471,-5.98785,-0.00598785
0.17406,-0.000900765,-0.900765,-5.92402,-0.00592402
0.172023,-0.000902118,-0.902118,-5.93291,-0.00593291
0.170005,-0.000926489,-0.926489,-6.0932,-0.0060932
0.168024,-0.000944152,-0.944152,-6.20936,-0.00620936
0.166015,-0.000946936,-0.946936,-6.22767,-0.00622767
0.163992,-0.000943833,-0.943833,-6.20726,-0.00620726
0.161992,-0.00095041,-0.95041,-6.25052,-0.00625052
0.160026,-0.000956324,-0.956324,-6.28941,-0.00628941
0.158039,-0.000963989,-0.963989,-6.33982,-0.00633982
0.156044,-0.00096428,-0.96428,-6.34174,-0.00634174
0.153995,-0.000955131,-0.955131,-6.28156,-0.00628156
0.151968,-0.000961098,-0.961098,-6.32081,-0.00632081
0.149972,-0.000981996,-0.981996,-6.45824,-0.00645824
0.1479996,-0.00097465,-0.97465,-6.40993,-0.00640993
0.146003,-0.000978309,-0.978309,-6.434,-0.006434
0.144044,-0.000978363,-0.978363,-6.43435,-0.00643435
0.142051,-0.0010008,-1.0008,-6.5819,-0.0065819
0.140068,-0.00099987,-0.99987,-6.5758,-0.0065758
0.138066,-0.000987326,-0.987326,-6.4933,-0.0064933
0.136077,-0.000994619,-0.994619,-6.54126,-0.00654126
0.134066,-0.000999976,-0.999976,-6.5765,-0.0065765
0.1320599,-0.00100677,-1.00677,-6.62114,-0.00662114
0.130036,-0.0010144,-1.0144,-6.67138,-0.00667138
0.127997,-0.00100891,-1.00891,-6.63527,-0.00663527
0.1260417,-0.000998438,-0.998438,-6.56638,-0.00656638
0.124046,-0.000997404,-0.997404,-6.55958,-0.00655958
0.122039,-0.00100409,-1.00409,-6.60353,-0.00660353
0.120036,-0.0010288,-1.0288,-6.76608,-0.00676608
0.118031,-0.0010423,-1.0423,-6.85486,-0.00685486
0.11604,-0.00104158,-1.04158,-6.85008,-0.00685008
0.114019,-0.00103557,-1.03557,-6.81056,-0.00681056
0.112024,-0.00103649,-1.03649,-6.81666,-0.00681666
0.110023,-0.00104509,-1.04509,-6.87317,-0.00687317
0.10805,-0.0010632,-1.0632,-6.99229,-0.00699229
0.10607,-0.00106827,-1.06827,-7.02561,-0.00702561
0.104078,-0.00106307,-1.06307,-6.99142,-0.00699142
0.102048,-0.00106763,-1.06763,-7.02142,-0.00702142
0.100058,-0.00108232,-1.08232,-7.11805,-0.00711805
0.0980526,-0.00106288,-1.06288,-6.9902,-0.0069902
0.0960296,-0.00105214,-1.05214,-6.91956,-0.00691956
0.09402056,-0.00107307,-1.07307,-7.05718,-0.00705718
0.0920032,-0.00107137,-1.07137,-7.04601,-0.00704601
0.0900186,-0.0010868,-1.0868,-7.14752,-0.00714752
0.0880539,-0.00110836,-1.10836,-7.28932,-0.00728932
0.08604,-0.00110043,-1.10043,-7.23717,-0.00723717
0.0840239,-0.00110661,-1.10661,-7.27781,-0.00727781
0.0820272,-0.00110134,-1.10134,-7.2431,-0.0072431
0.0800364,-0.00108858,-1.08858,-7.15921,-0.00715921
0.0780499,-0.00108367,-1.08367,-7.12694,-0.00712694
0.0760504,-0.00110441,-1.10441,-7.26333,-0.00726333
0.0740255,-0.00111958,-1.11958,-7.36309,-0.00736309
0.0720796,-0.00112921,-1.12921,-7.42641,-0.00742641
0.0700608,-0.00113279,-1.13279,-7.44995,-0.00744995
0.068063,-0.00113504,-1.13504,-7.46478,-0.00746478
0.06610173,-0.00112375,-1.12375,-7.39048,-0.00739048
0.0641162,-0.00113393,-1.13393,-7.45745,-0.00745745
0.062146,-0.00113358,-1.13358,-7.45519,-0.00745519
0.0601497,-0.00114196,-1.14196,-7.5103,-0.0075103
0.0581127,-0.00114676,-1.14676,-7.54187,-0.00754187
0.056072,-0.00115788,-1.15788,-7.61495,-0.00761495
0.0540643,-0.00115048,-1.15048,-7.56629,-0.00756629
0.052079,-0.00115697,-1.15697,-7.60902,-0.00760902
0.0500899,-0.00117169,-1.17169,-7.70582,-0.00770582
0.0481093,-0.00116254,-1.16254,-7.64564,-0.00764564
0.0460915,-0.00117726,-1.17726,-7.74244,-0.00774244
0.0441084,-0.00120325,-1.20325,-7.91337,-0.00791337
0.0421114,-0.00120614,-1.20614,-7.93238,-0.00793238
0.040131,-0.00119111,-1.19111,-7.83349,-0.00783349
0.0381381,-0.00119683,-1.19683,-7.87116,-0.00787116
0.0360966,-0.00119575,-1.19575,-7.86401,-0.00786401
0.0340874,-0.0012168,-1.2168,-8.00249,-0.00800249
0.0320721,-0.00122804,-1.22804,-8.0764,-0.0080764
0.0300926,-0.00121948,-1.21948,-8.02011,-0.00802011
0.0281245,-0.00123526,-1.23526,-8.12388,-0.00812388
0.0261223,-0.00126157,-1.26157,-8.2969,-0.0082969
0.0240742,-0.00125677,-1.25677,-8.26533,-0.00826533
0.0220995,-0.00126404,-1.26404,-8.31312,-0.00831312
0.0201179,-0.0012696,-1.2696,-8.34975,-0.00834975
0.018111,-0.00129658,-1.29658,-8.52713,-0.00852713
0.0161204,-0.00129602,-1.29602,-8.52346,-0.00852346
0.014158,-0.00128793,-1.28793,-8.47027,-0.00847027
0.0121388,-0.00127059,-1.27059,-8.3562,-0.0083562
0.0101361,-0.00128934,-1.28934,-8.47951,-0.00847951
0.00814194,-0.00131424,-1.31424,-8.64328,-0.00864328
0.00615433,-0.00133068,-1.33068,-8.75142,-0.00875142
0.00411749,-0.00134007,-1.34007,-8.81316,-0.00881316
0.00215026,-0.00133819,-1.33819,-8.80078,-0.00880078
0.000127847,-0.00134105,-1.34105,-8.81962,-0.00881962
-0.00188374,-0.00134643,-1.34643,-8.85502,-0.00885502
-0.00387559,-0.00133949,-1.33949,-8.80933,-0.00880933
-0.005877845,-0.00134683,-1.34683,-8.85764,-0.00885764
-0.00787161,-0.00135813,-1.35813,-8.93194,-0.00893194
-0.0098669,-0.00138177,-1.38177,-9.0874,-0.0090874
-0.0118515,-0.00140061,-1.40061,-9.21135,-0.00921135
-0.0138442,-0.00140417,-1.40417,-9.23472,-0.00923472
-0.015829,-0.00141703,-1.41703,-9.31931,-0.00931931
-0.0178273,-0.00142782,-1.42782,-9.39029,-0.00939029
-0.0198236,-0.00142451,-1.42451,-9.36849,-0.00936849
-0.0218362,-0.00143342,-1.43342,-9.42709,-0.00942709
-0.0238349,-0.00145432,-1.45432,-9.56453,-0.00956453
-0.0258467,-0.00146628,-1.46628,-9.64319,-0.00964319
-0.02785486,-0.00146949,-1.46949,-9.6643,-0.0096643
-0.0298639,-0.00147643,-1.47643,-9.70999,-0.00970999
-0.0318377,-0.0014872,-1.4872,-9.7808,-0.0097808
-0.03384655,-0.00150449,-1.50449,-9.89452,-0.00989452
-0.0358348,-0.00152576,-1.52576,-10.0344,-0.0100344
-0.0378678,-0.00154952,-1.54952,-10.1907,-0.0101907
-0.039841,-0.00157122,-1.57122,-10.3333,-0.0103333
-0.0418568,-0.00158172,-1.58172,-10.4024,-0.0104024
-0.0438733,-0.00158636,-1.58636,-10.4329,-0.0104329
-0.0458397,-0.00160325,-1.60325,-10.544,-0.010544
-0.0478269,-0.00160797,-1.60797,-10.5751,-0.0105751
-0.0498334,-0.00162251,-1.62251,-10.6707,-0.0106707
-0.051807,-0.00163597,-1.63597,-10.7592,-0.0107592
-0.0538056,-0.00165239,-1.65239,-10.8672,-0.0108672
-0.0557909,-0.0016748,-1.6748,-11.0146,-0.0110146
-0.0577834,-0.00170408,-1.70408,-11.2071,-0.0112071
-0.0597892,-0.00170912,-1.70912,-11.2403,-0.0112403
-0.0617834,-0.00173195,-1.73195,-11.3905,-0.0113905
-0.0637897,-0.00176091,-1.76091,-11.5809,-0.0115809
-0.0658011,-0.00180136,-1.80136,-11.8469,-0.0118469
-0.0678033,-0.00184851,-1.84851,-12.157,-0.012157
-0.06982,-0.00188927,-1.88927,-12.4251,-0.0124251
-0.0718492,-0.00191606,-1.91606,-12.6012,-0.0126012
-0.073854,-0.00194258,-1.94258,-12.7756,-0.0127756
-0.0758471,-0.0019744,-1.9744,-12.9849,-0.0129849
-0.0778528,-0.00200437,-2.00437,-13.182,-0.013182
-0.079862,-0.0020543,-2.0543,-13.5104,-0.0135104
-0.0818429,-0.00209682,-2.09682,-13.79,-0.01379
-0.0838133,-0.00211893,-2.11893,-13.9355,-0.0139355
-0.08582826,-0.00215362,-2.15362,-14.1636,-0.0141636
-0.08780016,-0.00221083,-2.21083,-14.5398,-0.0145398
-0.08976125,-0.00225893,-2.25893,-14.8562,-0.0148562
-0.0917716,-0.00230768,-2.30768,-15.1768,-0.0151768
-0.09381137,-0.00235918,-2.35918,-15.5155,-0.0155155
-0.0957773,-0.00241341,-2.41341,-15.8722,-0.0158722
-0.0977609,-0.00246932,-2.46932,-16.2398,-0.0162398
-0.0997925,-0.00252954,-2.52954,-16.6359,-0.0166359
-0.101822,-0.00257624,-2.57624,-16.9431,-0.0169431
-0.103825,-0.00264437,-2.64437,-17.3911,-0.0173911
-0.1057924,-0.0027099,-2.7099,-17.8221,-0.0178221
-0.107778,-0.00279493,-2.79493,-18.3813,-0.0183813
-0.109772,-0.00287475,-2.87475,-18.9062,-0.0189062
-0.111754,-0.00295898,-2.95898,-19.4602,-0.0194602
-0.11376,-0.00304143,-3.04143,-20.0024,-0.0200024
-0.115748,-0.00314552,-3.14552,-20.687,-0.020687
-0.117763,-0.00325738,-3.25738,-21.4227,-0.0214227
-0.119774,-0.00335811,-3.35811,-22.0851,-0.0220851
-0.121771,-0.0034365,-3.4365,-22.6007,-0.0226007
-0.123738,-0.00349858,-3.49858,-23.009,-0.023009
-0.125717,-0.00360262,-3.60262,-23.6932,-0.0236932
-0.127712,-0.00373307,-3.73307,-24.5511,-0.0245511
-0.12973,-0.00388134,-3.88134,-25.5262,-0.0255262
-0.131727,-0.00397109,-3.97109,-26.1165,-0.0261165
-0.133692,-0.00402869,-4.02869,-26.4953,-0.0264953
-0.135726,-0.00413058,-4.13058,-27.1654,-0.0271654
-0.137757,-0.0042426,-4.2426,-27.9021,-0.0279021
-0.139766,-0.00436464,-4.36464,-28.7047,-0.0287047
-0.141758,-0.00446889,-4.46889,-29.3904,-0.0293904
-0.143713,-0.00456474,-4.56474,-30.0207,-0.0300207
-0.145707,-0.00464446,-4.64446,-30.545,-0.030545
-0.147693,-0.00473974,-4.73974,-31.1716,-0.0311716
-0.149713,-0.00481031,-4.81031,-31.6357,-0.0316357
-0.151705,-0.0048646,-4.8646,-31.9928,-0.0319928
-0.153714,-0.00491698,-4.91698,-32.3372,-0.0323372
-0.155697,-0.00494623,-4.94623,-32.5296,-0.0325296
-0.157712,-0.00494363,-4.94363,-32.5125,-0.0325125
-0.159718,-0.00493151,-4.93151,-32.4328,-0.0324328
-0.161762,-0.00485757,-4.85757,-31.9466,-0.0319466
-0.163777,-0.00474863,-4.74863,-31.2301,-0.0312301
-0.165806,-0.00462552,-4.62552,-30.4204,-0.0304204
-0.167827,-0.00446974,-4.46974,-29.3959,-0.0293959
-0.169829,-0.00431418,-4.31418,-28.3728,-0.0283728
-0.1718,-0.00411716,-4.11716,-27.0771,-0.0270771
-0.173766,-0.00394518,-3.94518,-25.9461,-0.0259461
-0.1758033,-0.0037745,-3.7745,-24.8235,-0.0248235
-0.177787,-0.00360201,-3.60201,-23.6892,-0.0236892
-0.179799,-0.00344045,-3.44045,-22.6266,-0.0226266
-0.181813,-0.00327836,-3.27836,-21.5606,-0.0215606
-0.183824,-0.00311977,-3.11977,-20.5176,-0.0205176
-0.185799,-0.00299423,-2.99423,-19.692,-0.019692
-0.187769,-0.0028752,-2.8752,-18.9092,-0.0189092
-0.18978,-0.00276748,-2.76748,-18.2007,-0.0182007
-0.19178,-0.00266196,-2.66196,-17.5068,-0.0175068
-0.193769,-0.00256688,-2.56688,-16.8815,-0.0168815
-0.195287,-0.00249904,-2.49904,-16.4353,-0.0164353
-0.195348,-0.00246467,-2.46467,-16.2093,-0.0162093