File: literature/rawdata/engstfeld_2018_polycrystalline_17743/1708030001Cu100_UHV_C01_cycle29.csv
E,j,
V vs. RHE,\g(m)A/cm\+(-2),
-0.195379,-19.3581
-0.195943,-19.1469
-0.196937,-18.7329
-0.197848,-17.497
-0.1984558,-15.058
-0.198615,-11.775
-0.198317,-8.53864
-0.197635,-5.99186
-0.1966721,-4.24233
-0.195583,-3.29946
-0.194447,-2.78128
-0.193315,-2.5371
-0.19222,-2.40612
-0.191198,-2.16543
-0.190161,-1.96241
-0.189162,-1.74422
-0.188148,-1.43882
-0.187183,-1.05232
-0.186221,-0.677163
-0.185234,-0.210822
-0.184247,0.185482
-0.183232,0.664419
-0.182217,1.13882
-0.181226,1.57747
-0.180236,1.98594
-0.1792658,2.37087
-0.1782548,2.7572
-0.17726,3.16619
-0.1762585,3.54728
-0.175257,3.9875
-0.174252,4.43574
-0.173257,4.95008
-0.172286,5.40705
-0.171286,5.8129
-0.170283,6.27859
-0.169272,6.69386
-0.168286,7.13373
-0.167311,7.59575
-0.1663336,8.06335
-0.165329,8.50008
-0.16432,8.95427
-0.1633053,9.48638
-0.162323,9.96741
-0.1613232,10.4139
-0.160316,10.8833
-0.159338,11.327
-0.158363,11.7128
-0.157359,12.1575
-0.1563597,12.5187
-0.15534,12.9994
-0.154335,13.4028
-0.1533121,13.7729
-0.152297,14.1216
-0.151288,14.4317
-0.150317,14.761
-0.1493288,15.0348
-0.14834,15.324
-0.147356,15.5052
-0.146354,15.6857
-0.145342,15.9665
-0.1443288,16.1695
-0.143308,16.384
-0.142305,16.6043
-0.1412884,16.7625
-0.140287,16.9505
-0.1392768,17.0384
-0.1382847,17.0998
-0.137312,17.1511
-0.136324,17.1516
-0.135325,17.1883
-0.134342,17.2469
-0.133347,17.2615
-0.132364,17.2556
-0.131347,17.243
-0.130339,17.2676
-0.129349,17.2629
-0.128347,17.2141
-0.1273395,17.1591
-0.126326,17.1114
-0.1253262,17.017
-0.124313,16.9727
-0.123337,16.8951
-0.122343,16.747
-0.121357,16.5874
-0.120354,16.4167
-0.119362,16.2604
-0.118347,16.172
-0.117361,16.048
-0.1163637,15.9388
-0.115335,15.7176
-0.114332,15.4708
-0.113327,15.2026
-0.112328,14.9528
-0.111344,14.6954
-0.110345,14.4957
-0.109341,14.3037
-0.108339,14.0518
-0.1073072,13.8458
-0.106306,13.6531
-0.105298,13.4714
-0.10432,13.2982
-0.103333,13.1564
-0.102342,12.8796
-0.101335,12.5733
-0.100313,12.3176
-0.0993181,12.0166
-0.0983192,11.8008
-0.0973439,11.5335
-0.0963548,11.2779
-0.0953659,11.0332
-0.09435124,10.7779
-0.093354,10.5829
-0.09232267,10.4355
-0.0913206,10.2261
-0.0903047,10.1734
-0.08930923,10.079
-0.0883088,9.94753
-0.0873394,9.71259
-0.08635053,9.3847
-0.0853743,9.0943
-0.0843911,8.87088
-0.0833784,8.76606
-0.0823653,8.59409
-0.0813432,8.38757
-0.0803389,8.28416
-0.07934083,8.22294
-0.0783453,8.08027
-0.0773617,7.92033
-0.0763499,7.74906
-0.0753431,7.55162
-0.0743402,7.3889
-0.0733458,7.20803
-0.0723186,7.00187
-0.0713151,6.82397
-0.0703045,6.66473
-0.0693247,6.58363
-0.0683475,6.41689
-0.0673645,6.30928
-0.0663609,6.14656
-0.0653945,6.07103
-0.0643869,5.94406
-0.0633701,5.84726
-0.0623797,5.76285
-0.061353,5.68052
-0.0603503,5.58817
-0.059358,5.42867
-0.0583733,5.34094
-0.0573617,5.21135
-0.05635304,5.14124
-0.0553635,5.04113
-0.054358,5.00101
-0.0533799,4.93875
-0.0523666,4.90491
-0.0513588,4.87439
-0.0503618,4.75474
-0.0493635,4.67451
-0.0483568,4.57161
-0.0473441,4.4701
-0.0463501,4.38377
-0.0453834,4.29935
-0.0443941,4.27546
-0.0433928,4.19331
-0.0423825,4.10192
-0.0413851,4.00808
-0.040394,3.90936
-0.0394006,3.93031
-0.0383871,3.96064
-0.03738736,3.92995
-0.0363916,3.89332
-0.0353798,3.81012
-0.03437008,3.81989
-0.03337479,3.78954
-0.0323757,3.75327
-0.0313819,3.65629
-0.0303834,3.61792
-0.0293767,3.59228
-0.0283775,3.51938
-0.0273767,3.4981
-0.0263753,3.41124
-0.0253804,3.33869
-0.0243637,3.19392
-0.0233642,3.09364
-0.0223704,3.02317
-0.021388,2.91905
-0.0203853,2.80359
-0.0193815,2.74429
-0.0183971,2.67148
-0.0174069,2.58592
-0.01643,2.56063
-0.0154101,2.45005
-0.01442333,2.43157
-0.0134121,2.36756
-0.0124162,2.34454
-0.0114232,2.43837
-0.01044387,2.45302
-0.00944391,2.50412
-0.00843165,2.46157
-0.00742914,2.4293
-0.00644043,2.36006
-0.00545532,2.32936
-0.0044403,2.26448
-0.00346559,2.17448
-0.00247073,2.08728
-0.001470983,2.06391
-4.29006E-4,1.97792
0.000579441,1.90292
0.00159892,1.88077
0.00258113,1.93247
0.00359205,1.88879
0.00458373,1.87397
0.0055752,1.88513
0.00657176,1.92385
0.00757363,1.84275
0.00857592,1.8124
0.00955466,1.86909
0.0105315,1.81432
0.0115391,1.7988
0.0125416,1.8063
0.013553,1.79636
0.0145774,1.75485
0.0155854,1.7231
0.0165856,1.70235
0.017607,1.76549
0.0186211,1.80194
0.0196264,1.7245
0.0206147,1.80089
0.021614,1.78955
0.0226031,1.81397
0.0235967,1.78583
0.0245871,1.6952
0.02558985,1.69903
0.0265705,1.74613
0.0275879,1.70025
0.0285626,1.7545
0.0295992,1.81013
0.0305905,1.81606
0.03160594,1.85321
0.0326227,1.83351
0.0335865,1.84415
0.0345759,1.81938
0.0355754,1.79601
0.0365764,1.81293
0.0375787,1.86909
0.03858931,1.9392
0.0395933,2.06478
0.0405875,2.2221
0.0415996,2.34471
0.0425864,2.4279
0.0435604,2.4879
0.0445487,2.49202
0.0455461,2.45982
0.0465444,2.48407
0.0475467,2.50779
0.0485335,2.46383
0.04957,2.37523
0.050568,2.29413
0.0515559,2.11309
0.0525475,1.9774
0.0535439,1.88252
0.0545335,1.79426
0.0555294,1.74194
0.05652786,1.66136
0.057538,1.56299
0.0585549,1.55288
0.0595517,1.48398
0.06055782,1.49236
0.0615497,1.5384
0.0625486,1.6141
0.0635379,1.68142
0.0645472,1.69258
0.0655445,1.72581
0.066527,1.70322
0.06752336,1.69276
0.0685375,1.63398
0.0695687,1.59386
0.0705661,1.58183
0.0715695,1.5527
0.0725741,1.49427
0.0735554,1.44055
0.0745672,1.44021
0.075551,1.39224
0.0765425,1.40323
0.0775486,1.36748
0.07854943,1.38666
0.0795581,1.37759
0.0805459,1.45834
0.081523,1.50805
0.0825331,1.45834
0.0835388,1.49567
0.0845356,1.50265
0.0855487,1.50701
0.0865349,1.51141
0.0875342,1.46009
0.0885365,1.42765
0.08951395,1.31759
0.0905241,1.30469
0.0915117,1.26876
0.0924903,1.26684
0.0935068,1.25603
0.0945025,1.28289
0.0955343,1.32474
0.09652,1.35143
0.0975342,1.37027
0.0985401,1.40027
0.0995473,1.3673
0.100564,1.33626
0.101556,1.31097
0.102547,1.29754
0.103532,1.25097
0.104507,1.21277
0.105496,1.21591
0.106466,1.27661
0.107466,1.28299
0.1084792,1.278
0.1095061,1.32405
0.110515,1.3223
0.111513,1.27347
0.112506,1.28498
0.113499,1.34149
0.114476,1.31969
0.115464,1.33835
0.116468,1.42678
0.117476,1.44526
0.118489,1.48137
0.119497,1.49724
0.120498,1.50701
0.121496,1.50596
0.1225,1.47718
0.123499,1.52933
0.124498,1.50858
0.1255188,1.41683
0.126532,1.34201
0.127523,1.28184
0.1285155,1.25336
0.12952,1.22289
0.130495,1.25742
0.131482,1.25847
0.132474,1.23858
0.133501,1.28393
0.134496,1.24922
0.135521,1.25777
0.136515,1.27608
0.13753,1.30242
0.138528,1.34184
0.139514,1.32876
0.140504,1.34794
0.141484,1.32597
0.142491,1.27347
0.143498,1.29126
0.144488,1.26736
0.145464,1.24853
0.146456,1.26876
0.1474714,1.23457
0.148487,1.2452
0.149465,1.25585
0.150447,1.27486
0.151478,1.28062
0.152473,1.30364
0.15349,1.39242
0.154488,1.34829
0.155492,1.32876
0.156496,1.29632
0.157474,1.31794
0.158463,1.23318
0.159456,1.2112
0.160443,1.22411
0.161447,1.20789
0.1624572,1.20492
0.1634444,1.19795
0.1644484,1.22463
0.165451,1.16132
0.166455,1.15644
0.167467,1.21016
0.168465,1.26998
0.169466,1.30169
0.17047,1.31881
0.171452,1.26091
0.1724644,1.27451
0.173456,1.24417
0.174474,1.23039
0.175503,1.16341
0.17649,1.12504
0.177496,1.03731
0.1785,1.06801
0.179488,1.06958
0.180473,1.00853
0.18149,1.01237
0.182478,1.12801
0.183465,1.18016
0.184438,1.1683
0.185427,1.16411
0.186393,1.1369
0.187404,1.09958
0.1884111,1.0108
0.189404,0.981326
0.190401,0.985365
0.191419,1.04429
0.192435,1.08388
0.193456,1.16411
0.194461,1.14144
0.195456,1.09278
0.196455,1.10202
0.197464,1.05737
0.198459,1.05039
0.199461,1.04237
0.200433,1.01691
0.201437,0.964757
0.202447,0.958827
0.203438,0.963362
0.204461,0.911038
0.205452,0.929526
0.206479,0.970164
0.207486,0.968594
0.208486,1.00557
0.209473,1.00801
0.210462,1.02702
0.211439,1.03722
0.2124515,1.02196
0.2134646,1.03191
0.2144928,1.10062
0.215486,1.1308
0.216499,1.14824
0.217491,1.15905
0.218478,1.15923
0.219457,1.16394
0.220458,1.16237
0.22146,1.11475
0.222455,1.05161
0.223436,1.08371
0.224427,1.03156
0.225433,1.0333
0.22643,1.00051
0.22742,0.922375
0.228416,0.924991
0.229413,0.887318
0.230434,0.850691
0.231439,0.866737
0.232444,0.822045
0.233439,0.824878
0.234441,0.812146
0.235413,0.809355
0.236421,0.863947
0.237428,0.923596
0.23843,0.953246
0.239409,0.952374
0.240416,0.919933
0.2414,0.984466
0.242423,1.02319
0.243422,1.05231
0.244417,1.04481
0.245426,1.0722
0.246405,1.09103
0.247391,1.11807
0.2483999,1.16812
0.249403,1.11911
0.250389,1.08964
0.251394,1.079
0.252434,1.07464
0.253412,1.05442
0.254417,1.09278
0.2554045,1.08301
0.256395,1.11179
0.257412,1.09295
0.258404,1.13062
0.25941,1.14405
0.260383,1.22864
0.261379,1.23492
0.262375,1.25289
0.263386,1.2719
0.26436,1.29126
0.265381,1.24277
0.266377,1.24608
0.267383,1.2262
0.268388,1.20126
0.269362,1.20911
0.270365,1.16394
0.271351,1.218
0.272362,1.28847
0.273377,1.41439
0.274373,1.44501
0.275386,1.4777
0.276401,1.50683
0.277393,1.58218
0.278392,1.65874
0.279398,1.72328
0.280394,1.75642
0.281413,1.77159
0.282415,1.69712
0.283408,1.69049
0.284397,1.64375
0.285397,1.6038
0.286405,1.63328
0.287377,1.67165
0.288353,1.71299
0.289338,1.7749
0.290338,1.84223
0.291344,1.81397
0.292356,1.76671
0.293386,1.66659
0.294377,1.68473
0.295394,1.7133
0.296401,1.70025
0.297419,1.68107
0.298419,1.66851
0.299433,1.72642
0.300423,1.72973
0.301429,1.7252
0.302401,1.71264
0.303377,1.72624
0.304385,1.74124
0.30538,1.76671
0.306393,1.84484
0.307376,1.83211
0.308397,1.85827
0.309355,1.90379
0.310343,1.8785
0.311349,1.85566
0.31237,1.90659
0.313373,1.9542
0.31438,2.1035
0.315382,2.13646
0.31636,2.09723
0.31733,2.08693
0.318311,2.03286
0.319332,2.0149
0.320337,2.08972
0.321351,2.13088
0.322356,2.13193
0.323357,2.14431
0.324373,2.18634
0.3253805,2.25436
0.326383,2.34785
0.327367,2.30704
0.32837,2.33878
0.329378,2.36267
0.330351,2.38901
0.331336,2.43279
0.3323395,2.45476
0.333354,2.47029
0.334356,2.54546
0.335364,2.62098
0.336357,2.79051
0.337351,2.91702
0.338328,2.96335
0.339326,2.98812
0.34034,3.0591
0.341312,3.14212
0.3423,3.21887
0.343315,3.25026
0.344312,3.24485
0.345302,3.21119
0.346286,3.17683
0.347269,3.143
0.348276,3.16898
0.34929,3.16968
0.350296,3.26125
0.3513124,3.42171
0.352295,3.62856
0.353294,3.84919
0.3542895,4.27929
0.355302,4.61661
0.356291,4.8791
0.35733,5.11578
0.358354,5.13753
0.3593545,5.12223
0.360347,5.06555
0.361351,5.01828
0.362331,5.00171
0.363307,5.02386
0.364307,5.07392
0.365301,5.11909
0.366267,5.17089
0.367256,5.19008
0.368248,5.24467
0.369277,5.31496
0.370273,5.32647
0.371285,5.40652
0.3723,5.47925
0.373295,5.52617
0.374279,5.63797
0.37529,5.71209
0.3763018,5.78343
0.377295,5.8525
0.378286,5.95627
0.37928,6.09132
0.380271,6.27178
0.381271,6.35201
0.382285,6.4523
0.383275,6.5716
0.3842766,6.67223
0.38528,6.71688
0.386287,6.80392
0.387284,6.95391
0.3882826,7.07565
0.389283,7.28059
0.390291,7.42849
0.391289,7.60081
0.392272,7.78377
0.393258,7.94353
0.39427,8.10678
0.3952609,8.29514
0.396269,8.36822
0.397264,8.51647
0.3982501,8.59112
0.399256,8.75513
0.400251,8.95896
0.401264,9.19703
0.402257,9.42516
0.403267,9.61771
0.404254,9.83329
0.405263,10.0674
0.406267,10.3023
0.4072642,10.461
0.408275,10.6537
0.409278,10.8506
0.410302,11.0878
0.411306,11.245
0.412287,11.4147
0.413268,11.5942
0.414262,11.8476
0.415252,12.0124
0.416236,12.2072
0.417254,12.2761
0.418267,12.4465
0.419262,12.5459
0.420237,12.5953
0.421232,12.6657
0.422228,12.7406
0.423242,12.9024
0.424227,12.9816
0.425215,13.0383
0.426221,13.0927
0.427209,13.2113
0.428221,13.3308
0.429233,13.4961
0.430241,13.621
0.431228,13.7769
0.432228,13.857
0.433231,14.027
0.434233,14.1744
0.435196,14.3717
0.436207,14.4671
0.437191,14.5937
0.438187,14.7713
0.439193,14.9607
0.4402087,15.1689
0.441212,15.4132
0.442199,15.6123
0.4432,15.9192
0.444193,16.2553
0.445194,16.6183
0.446186,16.9357
0.447194,17.2612
0.448185,17.6131
0.449195,18.0254
0.450178,18.4693
0.451186,18.984
0.452186,19.497
0.453183,19.9923
0.454164,20.5576
0.455138,21.1319
0.456158,21.8507
0.457138,22.6446
0.4581182,23.5582
0.459102,24.5307
0.460099,25.614
0.461085,26.8734
0.462073,28.2737
0.463074,29.919
0.464043,31.6919
0.464999,33.7484
0.465974,36.1316
0.466945,38.9398
0.4679,42.1791
0.46884,46.086
0.469782,50.5909
0.470707,56.0476
0.471621,62.5015
0.472542,70.1312
0.473456,78.825
0.474353,88.5331
0.475298,99.1407
0.476278,109.806
0.477339,119.733
0.478484,127.672
0.479732,131.86
0.48107,130.849
0.4824329,124.235
0.483751,112.842
0.484939,98.8552
0.485978,84.8907
0.486898,73.3209
0.48777,64.7309
0.488638,58.9107
0.489553,54.846
0.490534,51.3534
0.491508,47.8434
0.492498,44.2698
0.493499,40.5808
0.494479,37.3097
0.495474,34.4185
0.496058,32.9525
0.496152,32.6402
0.496209,32.4141
0.496782,31.4168
0.497715,29.622
0.498597,27.0171
0.499256,22.4773
0.4995,16.0544
0.499256,8.92809
0.498542,2.47657
0.497548,-2.25647
0.496427,-5.40915
0.495241,-7.26595
0.494116,-8.34818
0.493002,-9.12745
0.491969,-9.88311
0.490958,-10.7982
0.489939,-11.8178
0.488946,-13.0725
0.487933,-14.476
0.486957,-15.8331
0.485999,-17.2328
0.485025,-18.8578
0.484031,-20.5743
0.483076,-22.4578
0.482101,-24.4337
0.481108,-26.6181
0.480121,-29.1802
0.479149,-31.9825
0.478173,-35.1474
0.477221,-38.7096
0.476238,-42.6421
0.475295,-46.972
0.474357,-51.6932
0.473407,-56.8075
0.4724395,-62.1386
0.471439,-67.3309
0.470462,-72.236
0.469419,-76.4589
0.468372,-79.7581
0.46732,-81.9897
0.466267,-83.1956
0.465215,-83.8688
0.4642,-84.379
0.463224,-85.1058
0.46225,-86.1655
0.461273,-87.7635
0.46026,-89.5978
0.459256,-91.2036
0.4582296,-92.2722
0.457144,-92.287
0.456045,-90.803
0.454914,-87.7602
0.4538081,-83.2973
0.452708,-77.7379
0.451659,-71.5234
0.45061,-65.1261
0.449602,-59.1664
0.448621,-53.6506
0.447638,-48.8761
0.44667,-44.8784
0.445698,-41.3005
0.444726,-38.2364
0.44376,-35.5979
0.442791,-33.2817
0.4418171,-31.2714
0.44079,-29.5438
0.439806,-27.9938
0.438779,-26.7194
0.437785,-25.6114
0.436801,-24.6303
0.435828,-23.8371
0.4348672,-23.0885
0.433879,-22.5002
0.432915,-21.9492
0.431933,-21.5219
0.430929,-21.2256
0.429918,-20.9586
0.42892,-20.714
0.4279117,-20.488
0.426916,-20.2579
0.425915,-20.026
0.4249101,-19.8022
0.423932,-19.5099
0.422926,-19.3203
0.42194,-19.1332
0.420937,-18.8846
0.419936,-18.6905
0.418952,-18.5299
0.417966,-18.3891
0.41696,-18.2968
0.415947,-18.3115
0.414979,-18.3396
0.413988,-18.304
0.412994,-18.2328
0.411994,-18.1383
0.41099,-18.0035
0.409983,-17.884
0.408989,-17.7525
0.407979,-17.5696
0.406992,-17.3395
0.405974,-17.103
0.404963,-16.8511
0.403974,-16.6127
0.402964,-16.4111
0.401947,-16.177
0.400958,-15.9381
0.3999466,-15.7326
0.398941,-15.4719
0.397937,-15.1916
0.396927,-14.945
0.395928,-14.7141
0.394919,-14.4641
0.393905,-14.1882
0.392914,-13.8751
0.391937,-13.6573
0.3909145,-13.4715
0.389933,-13.2368
0.3889237,-12.9855
0.387948,-12.7641
0.386959,-12.5356
0.385972,-12.3719
0.384995,-12.1978
0.383993,-12.0919
0.383007,-11.9437
0.381987,-11.8049
0.380952,-11.5825
0.379975,-11.368
0.378955,-11.1719
0.377942,-11.0308
0.376939,-10.8726
0.375924,-10.7741
0.374936,-10.6787
0.3739422,-10.5671
0.372945,-10.4765
0.371976,-10.3454
0.370985,-10.2491
0.369976,-10.1622
0.3689799,-10.1452
0.367972,-10.127
0.366954,-10.1288
0.365953,-10.0788
0.364952,-10.0175
0.363935,-10.0203
0.362948,-9.89208
0.361956,-9.76807
0.360955,-9.70825
0.359999,-9.62087
0.359004,-9.56872
0.358012,-9.48779
0.357001,-9.45273
0.356005,-9.44209
0.355003,-9.41436
0.354007,-9.4564
0.352994,-9.4618
0.351994,-9.49163
0.350991,-9.55651
0.34999,-9.54692
0.348991,-9.54744
0.347947,-9.47314
0.346948,-9.32088
0.345947,-9.07518
0.344956,-8.78927
0.343979,-8.43974
0.342969,-8.09912
0.341961,-7.80331
0.340997,-7.60012
0.340028,-7.45501
0.3390103,-7.39065
0.338008,-7.3767
0.336999,-7.36467
0.335997,-7.35472
0.335017,-7.35839
0.334003,-7.35699
0.33299,-7.33502
0.331956,-7.23141
0.330953,-7.16392
0.329962,-7.09241
0.328966,-7.00991
0.327966,-6.95445
0.326983,-6.85276
0.325997,-6.70905
0.325006,-6.6515
0.324011,-6.68219
0.323017,-6.73434
0.322008,-6.71271
0.3210125,-6.74428
0.32003,-6.63824
0.319036,-6.56219
0.318046,-6.53062
0.317037,-6.50586
0.316029,-6.58016
0.315021,-6.6058
0.3139886,-6.71568
0.31298,-6.77288
0.311954,-6.69283
0.310958,-6.65236
0.309947,-6.62864
0.308969,-6.61312
0.307961,-6.55975
0.30699,-6.53778
0.306003,-6.53341
0.305012,-6.52679
0.304037,-6.52777
0.303025,-6.40191
0.302046,-6.35813
0.301076,-6.34191
0.300096,-6.25191
0.299082,-6.16314
0.298108,-6.13558
0.29709,-6.07297
0.2960923,-6.03895
0.295062,-5.98698
0.294052,-5.97128
0.293038,-5.96657
0.292056,-5.99204
0.291055,-6.03948
0.290054,-5.9882
0.2890465,-5.98018
0.288055,-6.02954
0.287071,-6.05151
0.286073,-6.13471
0.285069,-6.18843
0.284068,-6.18947
0.283059,-6.21172
0.282074,-6.19401
0.281062,-6.16907
0.2800397,-6.12651
0.27905,-6.08919
0.278076,-6.03843
0.277081,-6.13349
0.276078,-6.15459
0.275075,-6.16471
0.274059,-6.19976
0.273051,-6.21598
0.272056,-6.17343
0.271049,-6.14988
0.270045,-6.02675
0.269043,-6.07297
0.268049,-6.04994
0.267046,-6.07436
0.26603,-6.12808
0.265046,-6.15808
0.264047,-6.14587
0.263033,-6.11413
0.262092,-6.14988
0.261101,-6.10279
0.260087,-6.04558
0.259082,-5.97843
0.258072,-6.00564
0.2571024,-6.03843
0.256097,-6.04593
0.255097,-6.14604
0.254111,-6.18947
0.253065,-6.22959
0.252071,-6.26168
0.251068,-6.16523
0.250076,-6.15843
0.249083,-6.15023
0.248077,-6.1136
0.247097,-6.13244
0.246063,-6.17639
0.245056,-6.14046
0.244024,-6.13802
0.2430319,-6.1579
0.242057,-6.1661
0.241075,-6.18122
0.240083,-6.15442
0.239087,-6.16296
0.238106,-6.18302
0.237114,-6.22941
0.236102,-6.24947
0.235102,-6.23622
0.234092,-6.24023
0.233088,-6.27511
0.232072,-6.29953
0.231092,-6.37069
0.230085,-6.36144
0.229095,-6.34592
0.228107,-6.23081
0.227112,-6.25418
0.226117,-6.2554
0.225119,-6.31662
0.224139,-6.38429
0.223151,-6.40522
0.222127,-6.35569
0.221131,-6.32238
0.220124,-6.34879
0.219137,-6.39249
0.21813,-6.40365
0.217109,-6.42563
0.2161103,-6.38604
0.215115,-6.31348
0.214108,-6.28802
0.213114,-6.29464
0.212098,-6.3611
0.211095,-6.41499
0.2101,-6.4851
0.209097,-6.55417
0.208083,-6.54702
0.207075,-6.47307
0.206068,-6.4497
0.205093,-6.38761
0.204086,-6.47481
0.203088,-6.51336
0.2020818,-6.55679
0.201086,-6.57301
0.200076,-6.55696
0.199097,-6.573
0.198085,-6.55121
0.197092,-6.50289
0.196103,-6.44272
0.195129,-6.46156
0.194126,-6.55836
0.19311,-6.58679
0.1921183,-6.59568
0.191141,-6.63789
0.190126,-6.60545
0.189119,-6.59411
0.1881,-6.63841
0.187092,-6.65446
0.186094,-6.65986
0.185103,-6.68358
0.1841248,-6.64748
0.1831295,-6.64103
0.182118,-6.7155
0.181105,-6.8137
0.180109,-6.83166
0.179135,-6.81684
0.178146,-6.74753
0.177156,-6.76748
0.176133,-6.76469
0.175121,-6.80114
0.174131,-6.86654
0.173137,-6.91119
0.1721361,-6.9084
0.171132,-6.92096
0.170126,-6.90195
0.169126,-6.86846
0.168137,-6.86567
0.167144,-6.80271
0.16614,-6.76765
0.165151,-6.8416
0.164163,-6.84335
0.16317,-6.91154
0.16217,-6.94485
0.16118,-6.99386
0.160177,-7.01253
0.159151,-7.02351
0.158139,-7.02648
0.15714,-7.04585
0.156122,-7.06433
0.155121,-7.04985
0.154134,-7.09502
0.153134,-7.01584
0.152125,-6.96003
0.151122,-6.97363
0.150127,-6.99421
0.149144,-7.04915
0.148162,-7.06136
0.147144,-7.14682
0.146132,-7.20351
0.145154,-7.25566
0.144172,-7.2281
0.1431592,-7.14717
0.142172,-7.10915
0.141144,-7.02404
0.140161,-7.02648
0.139153,-7.10462
0.138109,-7.11874
0.137118,-7.14316
0.136129,-7.14672
0.135108,-7.13252
0.1341112,-7.1763
0.133109,-7.28252
0.132112,-7.31217
0.131127,-7.3481
0.130163,-7.37042
0.129149,-7.40478
0.128147,-7.46966
0.127137,-7.4796
0.126141,-7.52669
0.125133,-7.57134
0.124125,-7.6221
0.123106,-7.586
0.1221172,-7.58425
0.121141,-7.57431
0.120132,-7.55512
0.119142,-7.52547
0.118149,-7.45553
0.11719,-7.44664
0.1162,-7.47455
0.115186,-7.55291
0.114221,-7.53995
0.113197,-7.61547
0.1121987,-7.61704
0.1112,-7.55669
0.110184,-7.54466
0.109175,-7.57361
0.108166,-7.62873
0.107175,-7.69762
0.106183,-7.77454
0.105183,-7.76023
0.104165,-7.75535
0.103143,-7.74018
0.102156,-7.80122
0.101163,-7.83
0.100197,-7.86802
0.0991835,-7.83261
0.0982224,-7.79459
0.0972212,-7.8211
0.0962138,-7.83192
0.0952209,-7.8201
0.0942147,-7.81448
0.0931859,-7.82442
0.092169,-7.83
0.0911739,-7.90883
0.0901676,-7.92122
0.0891723,-7.93517
0.0881734,-7.88511
0.0871666,-7.9043
0.0861556,-7.93848
0.085151,-7.97633
0.0841689,-7.95802
0.0831783,-7.9397
0.0821815,-7.97703
0.0811985,-7.92436
0.08021532,-7.9343
0.0792179,-7.89017
0.0782065,-7.85686
0.0771997,-7.87133
0.0761803,-7.90064
0.0751867,-7.90779
0.0741945,-7.91005
0.0732152,-7.99656
0.0722019,-8.09162
0.0712021,-8.18022
0.0701941,-8.23167
0.0691969,-8.29812
0.0681904,-8.34399
0.0672044,-8.27806
0.0662246,-8.20429
0.0652257,-8.13226
0.0642287,-8.14952
0.0632071,-8.14621
0.06224069,-8.20062
0.061238,-8.26725
0.060217,-8.31556
0.0592283,-8.33789
0.0582313,-8.30021
0.0572195,-8.34713
0.0562025,-8.35725
0.0552094,-8.3855
0.0542234,-8.40992
0.0532294,-8.4085
0.0522517,-8.3876
0.05126,-8.43504
0.0502274,-8.49242
0.0492283,-8.56497
0.0482167,-8.58555
0.0472086,-8.50724
0.046221,-8.57334
0.0452297,-8.53689
0.0442321,-8.55782
0.043243,-8.61904
0.042236,-8.63875
0.0412469,-8.58712
0.0402497,-8.543
0.0392646,-8.58276
0.0382485,-8.59986
0.0372216,-8.69456
0.0362259,-8.71776
0.03523121,-8.77427
0.0342338,-8.88083
0.0332294,-8.91432
0.0322192,-8.97262
0.0312486,-9.04844
0.0302193,-9.06903
0.0292223,-9.14071
0.0282241,-9.12989
0.0272632,-9.13408
0.0262738,-9.09693
0.02525752,-9.07618
0.0242781,-9.08943
0.0232907,-9.00606
0.0222988,-8.94013
0.0212702,-8.9363
0.0202482,-9.00606
0.0192321,-9.16181
0.0182307,-9.1939
0.0172498,-9.23472
0.0162558,-9.29803
0.0152666,-9.27692
0.01427305,-9.36675
0.0132975,-9.40512
0.0123065,-9.47733
0.0112971,-9.59167
0.0102673,-9.66691
0.00925607,-9.6568
0.00825675,-9.65156
0.00725382,-9.71767
0.00624538,-9.61808
0.00525199,-9.57552
0.0042635,-9.58529
0.00329282,-9.63744
0.00228671,-9.66726
0.00130394,-9.79057
0.000317143,-9.82179
-0.000687272,-9.84725
-0.00171015,-9.85877
-0.00270905,-9.83225
-0.00369946,-9.86923
-0.00471469,-9.90655
-0.005714227,-9.94161
-0.006702302,-9.93777
-0.00771308,-9.93533
-0.00872768,-9.95487
-0.00971359,-9.9763
-0.0107185,-10.0245
-0.0117112,-10.0855
-0.012711,-10.1429
-0.0137173,-10.1793
-0.0147092,-10.2397
-0.0157066,-10.2242
-0.0167038,-10.2032
-0.0177171,-10.1847
-0.0186914,-10.1745
-0.0197158,-10.126
-0.0207212,-10.1685
-0.0217146,-10.1963
-0.0227292,-10.1799
-0.0237266,-10.167
-0.024724,-10.2332
-0.0257077,-10.3363
-0.02672736,-10.4678
-0.0277216,-10.562
-0.0287173,-10.6206
-0.0297313,-10.6761
-0.0307411,-10.6923
-0.0317446,-10.8234
-0.0327577,-10.8698
-0.03374999,-10.9799
-0.03473955,-11.0666
-0.035737,-11.1318
-0.0367397,-11.1737
-0.0377239,-11.2105
-0.0386969,-11.3057
-0.0396721,-11.3435
-0.0406797,-11.444
-0.0416902,-11.4878
-0.04270272,-11.6095
-0.0437056,-11.5938
-0.0447028,-11.5741
-0.0456977,-11.5663
-0.0467083,-11.58
-0.0477365,-11.6474
-0.0487247,-11.7714
-0.0497264,-11.8626
-0.0506871,-11.9829
-0.0516885,-12.1537
-0.0526887,-12.289
-0.0536789,-12.3932
-0.0546755,-12.4458
-0.0556782,-12.4746
-0.0566826,-12.4995
-0.0576855,-12.5011
-0.0587012,-12.476
-0.0597054,-12.5259
-0.0606982,-12.6379
-0.0616926,-12.7273
-0.0626879,-12.7617
-0.0636968,-12.8714
-0.0646963,-12.9267
-0.0657056,-12.9975
-0.0667282,-13.1555
-0.0677433,-13.3392
-0.0687369,-13.4684
-0.0697181,-13.4958
-0.0707033,-13.5258
-0.0716918,-13.511
-0.0726868,-13.569
-0.0736632,-13.6948
-0.0746572,-13.8458
-0.0756491,-13.9437
-0.0766444,-14.0349
-0.0776533,-14.2238
-0.0786382,-14.3256
-0.0796282,-14.5219
-0.0806383,-14.6492
-0.0816285,-14.8553
-0.0826338,-15.0308
-0.0836656,-15.2382
-0.0846694,-15.4217
-0.0856561,-15.5812
-0.0866924,-15.7708
-0.0876994,-15.8884
-0.0887129,-16.0433
-0.0896927,-16.2199
-0.0906857,-16.3274
-0.0916686,-16.4863
-0.0926669,-16.6701
-0.0936402,-16.8224
-0.0946116,-16.991
-0.0956027,-17.145
-0.0965952,-17.3053
-0.09760239,-17.4968
-0.0986183,-17.7166
-0.0996341,-17.896
-0.1006602,-18.1378
-0.1016646,-18.387
-0.102654,-18.6195
-0.103656,-18.8176
-0.104649,-19.1115
-0.105619,-19.363
-0.10662,-19.5673
-0.107592,-19.8327
-0.108586,-20.0415
-0.1096,-20.315
-0.110579,-20.5682
-0.11156,-20.796
-0.112596,-21.0531
-0.113585,-21.3812
-0.114582,-21.7731
-0.115577,-22.1794
-0.116579,-22.5569
-0.117598,-22.908
-0.118629,-23.2085
-0.119635,-23.4197
-0.120666,-23.7322
-0.12166,-24.0469
-0.1226822,-24.3068
-0.12368,-24.6155
-0.1246904,-24.97
-0.125682,-25.3105
-0.126691,-25.66
-0.127689,-25.926
-0.128658,-26.1281
-0.129633,-26.4461
-0.130597,-26.751
-0.131591,-27.0227
-0.13259,-27.4019
-0.133581,-27.7423
-0.1345892,-28.1553
-0.13558,-28.5132
-0.136586,-28.8486
-0.13758,-29.1116
-0.138593,-29.3979
-0.139572,-29.7716
-0.140558,-30.0156
-0.141553,-30.2469
-0.142561,-30.5103
-0.143567,-30.7874
-0.144576,-31.0365
-0.145588,-31.3574
-0.146586,-31.7015
-0.147578,-31.9633
-0.148592,-32.256
-0.149583,-32.4876
-0.15058,-32.6554
-0.151595,-32.7741
-0.152598,-32.857
-0.153612,-32.8983
-0.154602,-32.9676
-0.155611,-33.02
-0.156605,-33.0399
-0.157641,-32.9758
-0.158669,-32.8823
-0.1596709,-32.7239
-0.1606577,-32.5408
-0.161633,-32.2492
-0.162641,-31.8817
-0.163613,-31.5539
-0.16462,-31.1483
-0.1656331,-30.6815
-0.166635,-30.2007
-0.167649,-29.6002
-0.168648,-29.015
-0.169648,-28.5281
-0.17066,-27.8456
-0.171657,-27.2852
-0.172652,-26.7243
-0.17365,-26.1812
-0.174674,-25.603
-0.175679,-24.9592
-0.176703,-24.4382
-0.1776727,-23.836
-0.178668,-23.2486
-0.179671,-22.6736
-0.180649,-22.091
-0.18165,-21.5871
-0.182646,-21.1863
-0.183632,-20.8429
-0.184633,-20.4822
-0.18563,-20.2457
-0.186617,-19.99
-0.1876139,-19.6949
-0.188633,-19.3583
-0.189657,-19.0133
-0.1906278,-18.7149
-0.191632,-18.4135
-0.192618,-18.0621
-0.193634,-17.775
-0.194625,-17.5087
-0.195146,-17.3426
-0.195245,-17.3521
-0.195356,-17.2139