File: literature/rawdata/engstfeld_2018_polycrystalline_17743/1708030001Cu100_UHV_C01_cycle35.csv
E,<I>,I (raw),j,j
V vs. RHE,mA,\g(m)A,\g(m)A/cm\+(-2),mA/cm\+(-2)
-0.195413,-0.00238352,-2.38352,-15.6756,-0.0156756
-0.195997,-0.00236472,-2.36472,-15.5519,-0.0155519
-0.196987,-0.0023081,-2.3081,-15.1796,-0.0151796
-0.197893,-0.002111,-2.111,-13.8833,-0.0138833
-0.198501,-0.00171196,-1.71196,-11.2589,-0.0112589
-0.198673,-0.00120959,-1.20959,-7.95505,-0.00795505
-0.198366,-0.000695474,-0.695474,-4.57389,-0.00457389
-0.197622,-0.00029253,-0.29253,-1.92386,-0.00192386
-0.196658,-1.78356e-05,-0.0178356,-0.117299,-0.000117299
-0.195562,0.000150168,0.150168,0.987605,0.000987605
-0.1944,0.00024275,0.24275,1.59648,0.00159648
-0.193304,0.000287515,0.287515,1.89089,0.00189089
-0.192201,0.000311171,0.311171,2.04646,0.00204646
-0.1911889,0.000348989,0.348989,2.29518,0.00229518
-0.190175,0.000392031,0.392031,2.57825,0.00257825
-0.189194,0.000434993,0.434993,2.8608,0.0028608
-0.188212,0.000499993,0.499993,3.28828,0.00328828
-0.187205,0.000564543,0.564543,3.7128,0.0037128
-0.186229,0.000623868,0.623868,4.10296,0.00410296
-0.185233,0.000687592,0.687592,4.52206,0.00452206
-0.1842346,0.000747929,0.747929,4.91886,0.00491886
-0.183226,0.000800862,0.800862,5.26699,0.00526699
-0.182238,0.000854274,0.854274,5.61826,0.00561826
-0.18125,0.000905139,0.905139,5.95278,0.00595278
-0.180243,0.000953485,0.953485,6.27074,0.00627074
-0.179249,0.00101742,1.01742,6.69125,0.00669125
-0.1782565,0.00109226,1.09226,7.18344,0.00718344
-0.177266,0.00116084,1.16084,7.63447,0.00763447
-0.176254,0.00121778,1.21778,8.00893,0.00800893
-0.175243,0.00127737,1.27737,8.40084,0.00840084
-0.17426,0.00134328,1.34328,8.83425,0.00883425
-0.173268,0.00142063,1.42063,9.34301,0.00934301
-0.17227,0.00150218,1.50218,9.87933,0.00987933
-0.17127,0.00158498,1.58498,10.4238,0.0104238
-0.17027,0.00166854,1.66854,10.9734,0.0109734
-0.169272,0.00174391,1.74391,11.4691,0.0114691
-0.168286,0.00181225,1.81225,11.9186,0.0119186
-0.16732,0.00188516,1.88516,12.398,0.012398
-0.166333,0.00193544,1.93544,12.7287,0.0127287
-0.165339,0.00198973,1.98973,13.0857,0.0130857
-0.164338,0.00204848,2.04848,13.4721,0.0134721
-0.163367,0.00211344,2.11344,13.8994,0.0138994
-0.162342,0.00218454,2.18454,14.367,0.014367
-0.161354,0.00226609,2.26609,14.9033,0.0149033
-0.160325,0.00234517,2.34517,15.4234,0.0154234
-0.159312,0.0024159,2.4159,15.8885,0.0158885
-0.158308,0.0024603,2.4603,16.1805,0.0161805
-0.157304,0.00251021,2.51021,16.5088,0.0165088
-0.156319,0.00256144,2.56144,16.8457,0.0168457
-0.155334,0.00261228,2.61228,17.1801,0.0171801
-0.154311,0.0026601,2.6601,17.4945,0.0174945
-0.153316,0.00270961,2.70961,17.8202,0.0178202
-0.152304,0.00275942,2.75942,18.1477,0.0181477
-0.151298,0.00281328,2.81328,18.5019,0.0185019
-0.150311,0.00286624,2.86624,18.8502,0.0188502
-0.149293,0.00290657,2.90657,19.1155,0.0191155
-0.148326,0.00294471,2.94471,19.3663,0.0193663
-0.1473465,0.00297895,2.97895,19.5915,0.0195915
-0.146363,0.00300032,3.00032,19.7321,0.0197321
-0.145378,0.00302149,3.02149,19.8713,0.0198713
-0.144359,0.00304146,3.04146,20.0026,0.0200026
-0.143364,0.00305117,3.05117,20.0664,0.0200664
-0.142386,0.00305434,3.05434,20.0874,0.0200874
-0.141387,0.00306575,3.06575,20.1624,0.0201624
-0.140379,0.00307275,3.07275,20.2084,0.0202084
-0.1393863,0.00308089,3.08089,20.2619,0.0202619
-0.138384,0.00309033,3.09033,20.324,0.020324
-0.137358,0.00309076,3.09076,20.3268,0.0203268
-0.136333,0.00310065,3.10065,20.3919,0.0203919
-0.135341,0.00309274,3.09274,20.3399,0.0203399
-0.134339,0.00309227,3.09227,20.3368,0.0203368
-0.133329,0.00308383,3.08383,20.2813,0.0202813
-0.132318,0.003068,3.068,20.1772,0.0201772
-0.131347,0.00305389,3.05389,20.0844,0.0200844
-0.130362,0.00304755,3.04755,20.0427,0.0200427
-0.129367,0.00302963,3.02963,19.9248,0.0199248
-0.1283666,0.00301578,3.01578,19.8338,0.0198338
-0.12736,0.00299764,2.99764,19.7145,0.0197145
-0.126341,0.00298743,2.98743,19.6473,0.0196473
-0.125334,0.00297115,2.97115,19.5402,0.0195402
-0.124345,0.0029411,2.9411,19.3426,0.0193426
-0.123371,0.00292052,2.92052,19.2073,0.0192073
-0.122362,0.00289918,2.89918,19.0669,0.0190669
-0.121344,0.00286947,2.86947,18.8715,0.0188715
-0.120352,0.00283667,2.83667,18.6558,0.0186558
-0.119368,0.00279654,2.79654,18.3919,0.0183919
-0.11838,0.00276252,2.76252,18.1681,0.0181681
-0.117353,0.00271534,2.71534,17.8578,0.0178578
-0.116349,0.00268208,2.68208,17.6391,0.0176391
-0.115329,0.00264848,2.64848,17.4181,0.0174181
-0.114327,0.0026134,2.6134,17.1874,0.0171874
-0.1133356,0.00257622,2.57622,16.9429,0.0169429
-0.112332,0.00253545,2.53545,16.6748,0.0166748
-0.111307,0.00250055,2.50055,16.4453,0.0164453
-0.11029,0.00246173,2.46173,16.1899,0.0161899
-0.1092931,0.00243542,2.43542,16.0169,0.0160169
-0.108299,0.00240673,2.40673,15.8282,0.0158282
-0.107303,0.00237559,2.37559,15.6234,0.0156234
-0.106326,0.0023412,2.3412,15.3972,0.0153972
-0.1053406,0.0023034,2.3034,15.1487,0.0151487
-0.1043519,0.0022615,2.2615,14.8731,0.0148731
-0.103336,0.00221727,2.21727,14.5822,0.0145822
-0.10232,0.00216265,2.16265,14.223,0.014223
-0.101312,0.00211877,2.11877,13.9344,0.0139344
-0.100313,0.00207499,2.07499,13.6465,0.0136465
-0.0992921,0.00203664,2.03664,13.3943,0.0133943
-0.0982749,0.00200033,2.00033,13.1555,0.0131555
-0.0972571,0.00196554,1.96554,12.9267,0.0129267
-0.0962559,0.00192157,1.92157,12.6375,0.0126375
-0.0952797,0.00189052,1.89052,12.4333,0.0124333
-0.0942869,0.00185113,1.85113,12.1743,0.0121743
-0.093325,0.00180196,1.80196,11.8509,0.0118509
-0.09232565,0.00176051,1.76051,11.5783,0.0115783
-0.0913142,0.0017315,1.7315,11.3875,0.0113875
-0.0903287,0.00169989,1.69989,11.1796,0.0111796
-0.0893343,0.00167255,1.67255,10.9998,0.0109998
-0.0883364,0.00164086,1.64086,10.7913,0.0107913
-0.0873388,0.00160858,1.60858,10.5791,0.0105791
-0.0863198,0.00157978,1.57978,10.3897,0.0103897
-0.0853083,0.00154772,1.54772,10.1788,0.0101788
-0.0843022,0.00151878,1.51878,9.98852,0.00998852
-0.0833129,0.00149306,1.49306,9.81934,0.00981934
-0.0823225,0.0014623,1.4623,9.61702,0.00961702
-0.0813441,0.00143731,1.43731,9.45267,0.00945267
-0.0803423,0.00140838,1.40838,9.26244,0.00926244
-0.07933,0.00138817,1.38817,9.12953,0.00912953
-0.0783585,0.00136903,1.36903,9.00361,0.00900361
-0.0773657,0.00134672,1.34672,8.85693,0.00885693
-0.0763282,0.00132187,1.32187,8.6935,0.0086935
-0.0753372,0.00129382,1.29382,8.50897,0.00850897
-0.0743614,0.00126475,1.26475,8.31782,0.00831782
-0.0733759,0.00124316,1.24316,8.17585,0.00817585
-0.0723806,0.00121959,1.21959,8.02079,0.00802079
-0.0713783,0.00120015,1.20015,7.89295,0.00789295
-0.0703752,0.00117705,1.17705,7.74103,0.00774103
-0.0693654,0.00116273,1.16273,7.64685,0.00764685
-0.06836167,0.00114228,1.14228,7.51238,0.00751238
-0.0673386,0.00112024,1.12024,7.36744,0.00736744
-0.0663282,0.00110847,1.10847,7.29,0.00729
-0.0653404,0.00109685,1.09685,7.21361,0.00721361
-0.0643487,0.0010706,1.0706,7.04094,0.00704094
-0.0633464,0.00104554,1.04554,6.87612,0.00687612
-0.06235449,0.00102172,1.02172,6.7195,0.0067195
-0.0613645,0.0010039,1.0039,6.60229,0.00660229
-0.0603796,0.00097823,0.97823,6.43348,0.00643348
-0.0593699,0.000960592,0.960592,6.31748,0.00631748
-0.0583576,0.000953114,0.953114,6.2683,0.0062683
-0.0573417,0.000944203,0.944203,6.20969,0.00620969
-0.056318,0.000925825,0.925825,6.08882,0.00608882
-0.055334,0.000916171,0.916171,6.02534,0.00602534
-0.0543376,0.000907022,0.907022,5.96517,0.00596517
-0.0533474,0.000900551,0.900551,5.92261,0.00592261
-0.0523517,0.000889837,0.889837,5.85215,0.00585215
-0.05133627,0.000886204,0.886204,5.82825,0.00582825
-0.0503643,0.000867268,0.867268,5.70372,0.00570372
-0.0493741,0.000852974,0.852974,5.60971,0.00560971
-0.048361,0.000849659,0.849659,5.58791,0.00558791
-0.0473613,0.000848757,0.848757,5.58198,0.00558198
-0.0463439,0.000834728,0.834728,5.48972,0.00548972
-0.0453482,0.000814494,0.814494,5.35664,0.00535664
-0.0443554,0.000797335,0.797335,5.2438,0.0052438
-0.0433833,0.000780442,0.780442,5.13269,0.00513269
-0.04237612,0.000764822,0.764822,5.02997,0.00502997
-0.04139547,0.000763284,0.763284,5.01985,0.00501985
-0.0403798,0.000766148,0.766148,5.03869,0.00503869
-0.0393791,0.000746996,0.746996,4.91273,0.00491273
-0.0383659,0.000732308,0.732308,4.81614,0.00481614
-0.03737526,0.00071401,0.71401,4.69579,0.00469579
-0.0363719,0.000699238,0.699238,4.59864,0.00459864
-0.03539063,0.000702898,0.702898,4.62271,0.00462271
-0.034403,0.000701174,0.701174,4.61138,0.00461138
-0.0333846,0.000699477,0.699477,4.60021,0.00460021
-0.032385,0.000693828,0.693828,4.56306,0.00456306
-0.0313802,0.000685288,0.685288,4.5069,0.0045069
-0.0303717,0.000668634,0.668634,4.39737,0.00439737
-0.0293775,0.000656779,0.656779,4.31941,0.00431941
-0.0283865,0.000647657,0.647657,4.25941,0.00425941
-0.0274126,0.00063437,0.63437,4.17203,0.00417203
-0.0264205,0.000634688,0.634688,4.17412,0.00417412
-0.02543412,0.00063437,0.63437,4.17203,0.00417203
-0.0244356,0.000638931,0.638931,4.20203,0.00420203
-0.0234234,0.000635829,0.635829,4.18162,0.00418162
-0.0224086,0.000633495,0.633495,4.16627,0.00416627
-0.0213963,0.000630525,0.630525,4.14674,0.00414674
-0.0203698,0.00060793,0.60793,3.99814,0.00399814
-0.0193652,0.000587164,0.587164,3.86158,0.00386158
-0.0183551,0.000566983,0.566983,3.72885,0.00372885
-0.0173568,0.000552185,0.552185,3.63153,0.00363153
-0.0163553,0.000530147,0.530147,3.48659,0.00348659
-0.01537363,0.000512776,0.512776,3.37235,0.00337235
-0.0143637,0.000510734,0.510734,3.35892,0.00335892
-0.01337053,0.000498667,0.498667,3.27956,0.00327956
-0.0123578,0.000493867,0.493867,3.24799,0.00324799
-0.0113594,0.000488006,0.488006,3.20945,0.00320945
-0.0103876,0.000480103,0.480103,3.15747,0.00315747
-0.00938216,0.000472598,0.472598,3.10811,0.00310811
-0.008374135,0.000482464,0.482464,3.17299,0.00317299
-0.00737375,0.000486548,0.486548,3.19985,0.00319985
-0.00639671,0.000482358,0.482358,3.1723,0.0031723
-0.00540864,0.000473633,0.473633,3.11492,0.00311492
-0.00441059,0.000464669,0.464669,3.05596,0.00305596
-0.00340639,0.00047411,0.47411,3.11805,0.00311805
-0.00242256,0.000480713,0.480713,3.16148,0.00316148
-0.00140965,0.000481111,0.481111,3.1641,0.0031641
-0.000411604,0.000467559,0.467559,3.07497,0.00307497
0.000578592,0.000453981,0.453981,2.98568,0.00298568
0.00158895,0.000443877,0.443877,2.91922,0.00291922
0.00258765,0.000437021,0.437021,2.87413,0.00287413
0.00358568,0.000436637,0.436637,2.87161,0.00287161
0.00458861,0.000447351,0.447351,2.94207,0.00294207
0.00559536,0.000456951,0.456951,3.00521,0.00300521
0.00658046,0.000451276,0.451276,2.96789,0.00296789
0.00756726,0.000451435,0.451435,2.96893,0.00296893
0.00856276,0.000434144,0.434144,2.85522,0.00285522
0.00956527,0.000426003,0.426003,2.80167,0.00280167
0.0105669,0.000424995,0.424995,2.79504,0.00279504
0.0115777,0.000420301,0.420301,2.76417,0.00276417
0.0125919,0.000406961,0.406961,2.67644,0.00267644
0.0136056,0.00039028,0.39028,2.56674,0.00256674
0.0146028,0.000388822,0.388822,2.55714,0.00255714
0.0155918,0.000395531,0.395531,2.60127,0.00260127
0.01656455,0.000403381,0.403381,2.6529,0.0026529
0.0175726,0.000411867,0.411867,2.70871,0.00270871
0.0185842,0.00042054,0.42054,2.76574,0.00276574
0.01960602,0.000414626,0.414626,2.72685,0.00272685
0.0206153,0.000410409,0.410409,2.69912,0.00269912
0.0216197,0.000411974,0.411974,2.70941,0.00270941
0.0225995,0.000397785,0.397785,2.6161,0.0026161
0.0235732,0.000393176,0.393176,2.58578,0.00258578
0.0245581,0.000383809,0.383809,2.52418,0.00252418
0.0255542,0.000390943,0.390943,2.5711,0.0025711
0.0265671,0.000397653,0.397653,2.61522,0.00261522
0.0275713,0.000400968,0.400968,2.63702,0.00263702
0.0285517,0.000405503,0.405503,2.66685,0.00266685
0.0295629,0.000408022,0.408022,2.68342,0.00268342
0.0305684,0.000406325,0.406325,2.67226,0.00267226
0.0315709,0.000403089,0.403089,2.65098,0.00265098
0.03258425,0.000409878,0.409878,2.69563,0.00269563
0.0335532,0.000408446,0.408446,2.68621,0.00268621
0.0345608,0.000406802,0.406802,2.6754,0.0026754
0.0355576,0.000399138,0.399138,2.62499,0.00262499
0.0365516,0.000402161,0.402161,2.64487,0.00264487
0.037541,0.000415182,0.415182,2.73051,0.00273051
0.0385346,0.000430272,0.430272,2.82975,0.00282975
0.0395532,0.00044401,0.44401,2.9201,0.0029201
0.0405425,0.000453636,0.453636,2.98341,0.00298341
0.0415677,0.000456951,0.456951,3.00521,0.00300521
0.0425492,0.000457296,0.457296,3.00748,0.00300748
0.0435469,0.00046146,0.46146,3.03486,0.00303486
0.0445323,0.000460609,0.460609,3.02926,0.00302926
0.0455444,0.000457455,0.457455,3.00852,0.00300852
0.0465552,0.000470079,0.470079,3.09154,0.00309154
0.047577,0.000467559,0.467559,3.07497,0.00307497
0.0485772,0.000454962,0.454962,2.99213,0.00299213
0.0495992,0.00044568,0.44568,2.93108,0.00293108
0.0506155,0.000445256,0.445256,2.92829,0.00292829
0.0516074,0.000443506,0.443506,2.91678,0.00291678
0.0525911,0.000441146,0.441146,2.90126,0.00290126
0.0535755,0.000431254,0.431254,2.8362,0.0028362
0.0545617,0.000414095,0.414095,2.72336,0.00272336
0.0555578,0.000408022,0.408022,2.68342,0.00268342
0.0565546,0.000404919,0.404919,2.66301,0.00266301
0.057548,0.000409587,0.409587,2.69371,0.00269371
0.05857446,0.000407598,0.407598,2.68063,0.00268063
0.0595674,0.000395054,0.395054,2.59813,0.00259813
0.0605788,0.000390492,0.390492,2.56813,0.00256813
0.0616009,0.000385719,0.385719,2.53674,0.00253674
0.0625864,0.000378479,0.378479,2.48912,0.00248912
0.0635728,0.000368799,0.368799,2.42546,0.00242546
0.0645855,0.000372194,0.372194,2.44779,0.00244779
0.065573,0.000358275,0.358275,2.35625,0.00235625
0.0665707,0.000368348,0.368348,2.4225,0.0024225
0.067552,0.000371345,0.371345,2.44221,0.00244221
0.0685658,0.000358218,0.358218,2.35587,0.00235587
0.0695473,0.000343366,0.343366,2.2582,0.0022582
0.0705557,0.000338991,0.338991,2.22942,0.00222942
0.0715648,0.000336657,0.336657,2.21407,0.00221407
0.0725673,0.00032878,0.32878,2.16227,0.00216227
0.0735443,0.000332599,0.332599,2.18739,0.00218739
0.074547,0.000332228,0.332228,2.18495,0.00218495
0.0755158,0.000335702,0.335702,2.2078,0.0022078
0.0765079,0.000340847,0.340847,2.24163,0.00224163
0.0775157,0.00034037,0.34037,2.23849,0.00223849
0.0785235,0.000352224,0.352224,2.31645,0.00231645
0.0795163,0.00035302,0.35302,2.32169,0.00232169
0.0805332,0.000358191,0.358191,2.3557,0.0023557
0.08154463,0.00036315,0.36315,2.38831,0.00238831
0.0825459,0.000369939,0.369939,2.43296,0.00243296
0.0835501,0.000358536,0.358536,2.35796,0.00235796
0.0845447,0.000343419,0.343419,2.25855,0.00225855
0.0855674,0.000334933,0.334933,2.20274,0.00220274
0.0865565,0.000327157,0.327157,2.1516,0.0021516
0.0875374,0.000318066,0.318066,2.09181,0.00209181
0.0885424,0.000319339,0.319339,2.10018,0.00210018
0.0895356,0.000324617,0.324617,2.13489,0.00213489
0.0905572,0.000330929,0.330929,2.1764,0.0021764
0.0915419,0.000329841,0.329841,2.16925,0.00216925
0.0925503,0.000318782,0.318782,2.09652,0.00209652
0.09355665,0.000313319,0.313319,2.06059,0.00206059
0.0945345,0.000313107,0.313107,2.0592,0.0020592
0.0955307,0.000316024,0.316024,2.07838,0.00207838
0.0965109,0.000313876,0.313876,2.06425,0.00206425
0.0975145,0.000313107,0.313107,2.0592,0.0020592
0.0985095,0.000304223,0.304223,2.00077,0.00200077
0.0995244,0.00030653,0.30653,2.01594,0.00201594
0.100536,0.00032398,0.32398,2.13071,0.00213071
0.1015213,0.000342465,0.342465,2.25227,0.00225227
0.102496,0.000348883,0.348883,2.29448,0.00229448
0.103487,0.000341934,0.341934,2.24878,0.00224878
0.1044921,0.000328674,0.328674,2.16158,0.00216158
0.105477,0.000316687,0.316687,2.08274,0.00208274
0.1064918,0.000302234,0.302234,1.98769,0.00198769
0.107504,0.000301973,0.301973,1.98597,0.00198597
0.108496,0.000306053,0.306053,2.0128,0.0020128
0.109509,0.000306848,0.306848,2.01803,0.00201803
0.110508,0.000299688,0.299688,1.97094,0.00197094
0.111482,0.00030165,0.30165,1.98385,0.00198385
0.11248,0.00029998,0.29998,1.97286,0.00197286
0.113468,0.00030783,0.30783,2.02449,0.00202449
0.114491,0.000311781,0.311781,2.05048,0.00205048
0.1154944,0.000309447,0.309447,2.03513,0.00203513
0.116516,0.00032101,0.32101,2.11117,0.00211117
0.117532,0.000330557,0.330557,2.17396,0.00217396
0.118526,0.000329576,0.329576,2.16751,0.00216751
0.119531,0.000321912,0.321912,2.1171,0.0021171
0.120522,0.000319498,0.319498,2.10123,0.00210123
0.121507,0.000304965,0.304965,2.00565,0.00200565
0.1224786,0.000300351,0.300351,1.9753,0.0019753
0.123476,0.000297699,0.297699,1.95786,0.00195786
0.124476,0.00029335,0.29335,1.92926,0.00192926
0.125477,0.000292395,0.292395,1.92298,0.00192298
0.126482,0.000310747,0.310747,2.04367,0.00204367
0.127485,0.000318968,0.318968,2.09774,0.00209774
0.1284741,0.000329318,0.329318,2.16581,0.00216581
0.129479,0.000332838,0.332838,2.18896,0.00218896
0.130454,0.000333315,0.333315,2.1921,0.0021921
0.131469,0.000320692,0.320692,2.10908,0.00210908
0.132483,0.000321885,0.321885,2.11693,0.00211693
0.133501,0.000315706,0.315706,2.07629,0.00207629
0.134513,0.000300643,0.300643,1.97722,0.00197722
0.135508,0.00029746,0.29746,1.95629,0.00195629
0.136482,0.000295127,0.295127,1.94094,0.00194094
0.137485,0.000293801,0.293801,1.93222,0.00193222
0.138457,0.000293403,0.293403,1.92961,0.00192961
0.1394694,0.000297169,0.297169,1.95437,0.00195437
0.14045,0.000294278,0.294278,1.93536,0.00193536
0.141467,0.000293641,0.293641,1.93118,0.00193118
0.142507,0.000286958,0.286958,1.88723,0.00188723
0.143519,0.000278339,0.278339,1.83054,0.00183054
0.144522,0.000272717,0.272717,1.79357,0.00179357
0.145495,0.000269694,0.269694,1.77368,0.00177368
0.146494,0.000269164,0.269164,1.77019,0.00177019
0.147475,0.000278949,0.278949,1.83455,0.00183455
0.148466,0.000286599,0.286599,1.88486,0.00188486
0.149444,0.000288523,0.288523,1.89752,0.00189752
0.15043,0.000285022,0.285022,1.87449,0.00187449
0.151437,0.000284996,0.284996,1.87432,0.00187432
0.15244,0.000277332,0.277332,1.82391,0.00182391
0.15345,0.000282848,0.282848,1.86019,0.00186019
0.154461,0.000292475,0.292475,1.9235,0.0019235
0.155484,0.000296002,0.296002,1.9467,0.0019467
0.156485,0.00030592,0.30592,2.01193,0.00201193
0.157481,0.000300616,0.300616,1.97705,0.00197705
0.158475,0.000298998,0.298998,1.96641,0.00196641
0.159454,0.000287144,0.287144,1.88845,0.00188845
0.160474,0.000279082,0.279082,1.83542,0.00183542
0.161489,0.000281973,0.281973,1.85444,0.00185444
0.162495,0.000279904,0.279904,1.84083,0.00184083
0.163493,0.000270516,0.270516,1.77909,0.00177909
0.164515,0.000270728,0.270728,1.78048,0.00178048
0.165501,0.000258264,0.258264,1.69851,0.00169851
0.1664982,0.000253517,0.253517,1.66729,0.00166729
0.167493,0.00024816,0.24816,1.63206,0.00163206
0.1684964,0.000246622,0.246622,1.62194,0.00162194
0.169486,0.000257767,0.257767,1.69524,0.00169524
0.170448,0.000269694,0.269694,1.77368,0.00177368
0.171452,0.000273327,0.273327,1.79758,0.00179758
0.1724695,0.000270357,0.270357,1.77804,0.00177804
0.173477,0.000259563,0.259563,1.70706,0.00170706
0.1744796,0.000262374,0.262374,1.72554,0.00172554
0.175487,0.00025349,0.25349,1.66712,0.00166712
0.176487,0.000254127,0.254127,1.6713,0.0016713
0.177498,0.000254843,0.254843,1.67601,0.00167601
0.178472,0.00025662,0.25662,1.6877,0.0016877
0.179464,0.00025235,0.25235,1.65962,0.00165962
0.180449,0.00026012,0.26012,1.71072,0.00171072
0.181454,0.000255585,0.255585,1.6809,0.0016809
0.182449,0.00025418,0.25418,1.67165,0.00167165
0.183457,0.000253331,0.253331,1.66607,0.00166607
0.184456,0.000255904,0.255904,1.68299,0.00168299
0.185477,0.000253013,0.253013,1.66398,0.00166398
0.186499,0.000246728,0.246728,1.62264,0.00162264
0.1875,0.000246542,0.246542,1.62142,0.00162142
0.188505,0.000239461,0.239461,1.57485,0.00157485
0.189472,0.000243731,0.243731,1.60293,0.00160293
0.19045,0.000241831,0.241831,1.59044,0.00159044
0.191431,0.00024816,0.24816,1.63206,0.00163206
0.19244,0.00023726,0.23726,1.56038,0.00156038
0.193431,0.000244792,0.244792,1.60991,0.00160991
0.194421,0.000256832,0.256832,1.68909,0.00168909
0.195441,0.000262878,0.262878,1.72886,0.00172886
0.196427,0.00026264,0.26264,1.72729,0.00172729
0.197446,0.000274255,0.274255,1.80368,0.00180368
0.19843,0.000269455,0.269455,1.77211,0.00177211
0.199424,0.000261844,0.261844,1.72206,0.00172206
0.200427,0.000259165,0.259165,1.70444,0.00170444
0.201437,0.000251156,0.251156,1.65177,0.00165177
0.202446,0.000244739,0.244739,1.60956,0.00160956
0.203449,0.000228349,0.228349,1.50177,0.00150177
0.2044809,0.000219014,0.219014,1.44038,0.00144038
0.205458,0.000215461,0.215461,1.41701,0.00141701
0.206477,0.000214161,0.214161,1.40846,0.00140846
0.207468,0.000216044,0.216044,1.42085,0.00142085
0.208465,0.00022034,0.22034,1.4491,0.0014491
0.209443,0.000232539,0.232539,1.52933,0.00152933
0.210418,0.000237233,0.237233,1.5602,0.0015602
0.211393,0.000237601,0.237601,1.56262,0.00156262
0.212398,0.000244102,0.244102,1.60537,0.00160537
0.213407,0.000241238,0.241238,1.58654,0.00158654
0.214442,0.000240495,0.240495,1.58165,0.00158165
0.215435,0.000244155,0.244155,1.60572,0.00160572
0.216436,0.000250732,0.250732,1.64898,0.00164898
0.2174381,0.000251342,0.251342,1.65299,0.00165299
0.218456,0.000247788,0.247788,1.62962,0.00162962
0.219424,0.000240257,0.240257,1.58008,0.00158008
0.220426,0.000232089,0.232089,1.52637,0.00152637
0.221407,0.000231426,0.231426,1.52201,0.00152201
0.222421,0.000242352,0.242352,1.59386,0.00159386
0.223434,0.000258582,0.258582,1.7006,0.0017006
0.224434,0.000264098,0.264098,1.73688,0.00173688
0.225435,0.000279215,0.279215,1.8363,0.0018363
0.226442,0.000282583,0.282583,1.85845,0.00185845
0.227438,0.000279745,0.279745,1.83978,0.00183978
0.228431,0.000279825,0.279825,1.84031,0.00184031
0.2294,0.000263806,0.263806,1.73496,0.00173496
0.230389,0.000246568,0.246568,1.62159,0.00162159
0.231395,0.000230312,0.230312,1.51468,0.00151468
0.23241,0.000222804,0.222804,1.4653,0.0014653
0.233386,0.00020891,0.20891,1.37393,0.00137393
0.234392,0.000212623,0.212623,1.39835,0.00139835
0.235407,0.000218749,0.218749,1.43864,0.00143864
0.236419,0.00022941,0.22941,1.50875,0.00150875
0.237438,0.000225591,0.225591,1.48363,0.00148363
0.23843,0.000222701,0.222701,1.46462,0.00146462
0.239397,0.000230073,0.230073,1.51311,0.00151311
0.240383,0.000244367,0.244367,1.60712,0.00160712
0.241377,0.000254021,0.254021,1.6706,0.0016706
0.242404,0.000264523,0.264523,1.73967,0.00173967
0.243408,0.000263992,0.263992,1.73618,0.00173618
0.244395,0.000267095,0.267095,1.75659,0.00175659
0.245391,0.000263939,0.263939,1.73584,0.00173584
0.24595,0.000271073,0.271073,1.78275,0.00178275
0.2459771,0.000258184,0.258184,1.69799,0.00169799
0.24608,0.000270596,0.270596,1.77961,0.00177961
0.2466,0.000249777,0.249777,1.6427,0.0016427
0.247595,0.00020891,0.20891,1.37393,0.00137393
0.248464,0.000120599,0.120599,0.793135,0.000793135
0.2490153,-2.95044e-05,-0.0295044,-0.19404,-0.00019404
0.249141,-0.000218804,-0.218804,-1.439,-0.001439
0.24883,-0.000399431,-0.399431,-2.62692,-0.00262692
0.24816,-0.000540146,-0.540146,-3.55235,-0.00355235
0.247197,-0.000625514,-0.625514,-4.11379,-0.00411379
0.246132,-0.000659486,-0.659486,-4.33721,-0.00433721
0.245015,-0.00067577,-0.67577,-4.4443,-0.0044443
0.243861,-0.000676512,-0.676512,-4.44918,-0.00444918
0.242819,-0.000674868,-0.674868,-4.43837,-0.00443837
0.241777,-0.000674284,-0.674284,-4.43453,-0.00443453
0.240763,-0.000668794,-0.668794,-4.39843,-0.00439843
0.2397638,-0.000661316,-0.661316,-4.34925,-0.00434925
0.238785,-0.000658081,-0.658081,-4.32797,-0.00432797
0.237814,-0.000664976,-0.664976,-4.37331,-0.00437331
0.236816,-0.000672402,-0.672402,-4.42215,-0.00442215
0.235819,-0.000677573,-0.677573,-4.45616,-0.00445616
0.234809,-0.000683779,-0.683779,-4.49697,-0.00449697
0.233809,-0.000682134,-0.682134,-4.48616,-0.00448616
0.2328182,-0.000689401,-0.689401,-4.53395,-0.00453395
0.2318282,-0.000702183,-0.702183,-4.61802,-0.00461802
0.230839,-0.000708495,-0.708495,-4.65953,-0.00465953
0.229827,-0.000716796,-0.716796,-4.71412,-0.00471412
0.228849,-0.000729791,-0.729791,-4.79958,-0.00479958
0.227859,-0.000731674,-0.731674,-4.81196,-0.00481196
0.226864,-0.000730374,-0.730374,-4.80342,-0.00480342
0.225857,-0.000735811,-0.735811,-4.83917,-0.00483917
0.224863,-0.000736872,-0.736872,-4.84615,-0.00484615
0.223848,-0.000729976,-0.729976,-4.8008,-0.0048008
0.222855,-0.000726608,-0.726608,-4.77865,-0.00477865
0.221858,-0.000724885,-0.724885,-4.76731,-0.00476731
0.220874,-0.000727537,-0.727537,-4.78475,-0.00478475
0.219875,-0.000730205,-0.730205,-4.8023,-0.0048023
0.218912,-0.000721331,-0.721331,-4.74394,-0.00474394
0.217927,-0.000729366,-0.729366,-4.79679,-0.00479679
0.216916,-0.00073528,-0.73528,-4.83568,-0.00483568
0.215894,-0.000735784,-0.735784,-4.839,-0.004839
0.2148958,-0.000736792,-0.736792,-4.84562,-0.00484562
0.2138797,-0.000731223,-0.731223,-4.809,-0.004809
0.212873,-0.000738065,-0.738065,-4.854,-0.004854
0.211876,-0.000743183,-0.743183,-4.88766,-0.00488766
0.210881,-0.000738781,-0.738781,-4.8587,-0.0048587
0.209887,-0.000731541,-0.731541,-4.81109,-0.00481109
0.208902,-0.000735652,-0.735652,-4.83812,-0.00483812
0.207929,-0.000730852,-0.730852,-4.80656,-0.00480656
0.2069252,-0.000727749,-0.727749,-4.78615,-0.00478615
0.2059229,-0.000739683,-0.739683,-4.86463,-0.00486463
0.204924,-0.000754401,-0.754401,-4.96143,-0.00496143
0.20391,-0.000765858,-0.765858,-5.03678,-0.00503678
0.202904,-0.000768165,-0.768165,-5.05195,-0.00505195
0.201894,-0.000771666,-0.771666,-5.07498,-0.00507498
0.200878,-0.000772568,-0.772568,-5.08091,-0.00508091
0.199872,-0.000779887,-0.779887,-5.12904,-0.00512904
0.198891,-0.000784197,-0.784197,-5.15739,-0.00515739
0.1978844,-0.000794049,-0.794049,-5.22218,-0.00522218
0.196895,-0.000794897,-0.794897,-5.22776,-0.00522776
0.195901,-0.000793014,-0.793014,-5.21538,-0.00521538
0.19491,-0.000792882,-0.792882,-5.21451,-0.00521451
0.1939096,-0.000800864,-0.800864,-5.267,-0.005267
0.192912,-0.000799353,-0.799353,-5.25706,-0.00525706
0.191926,-0.000801633,-0.801633,-5.27206,-0.00527206
0.190906,-0.000804895,-0.804895,-5.29352,-0.00529352
0.189907,-0.000801315,-0.801315,-5.26997,-0.00526997
0.188911,-0.000786862,-0.786862,-5.17491,-0.00517491
0.187916,-0.000786703,-0.786703,-5.17387,-0.00517387
0.18692,-0.000774503,-0.774503,-5.09364,-0.00509364
0.185908,-0.000766786,-0.766786,-5.04288,-0.00504288
0.1849208,-0.000764797,-0.764797,-5.0298,-0.0050298
0.183944,-0.000767847,-0.767847,-5.04986,-0.00504986
0.182928,-0.0007727,-0.7727,-5.08178,-0.00508178
0.181933,-0.000778906,-0.778906,-5.12259,-0.00512259
0.18093,-0.00079625,-0.79625,-5.23666,-0.00523666
0.1799622,-0.000802986,-0.802986,-5.28096,-0.00528096
0.178952,-0.000809298,-0.809298,-5.32247,-0.00532247
0.177953,-0.000821237,-0.821237,-5.40099,-0.00540099
0.176949,-0.000820622,-0.820622,-5.39694,-0.00539694
0.175955,-0.000822823,-0.822823,-5.41142,-0.00541142
0.174937,-0.000823592,-0.823592,-5.41648,-0.00541648
0.173906,-0.000835712,-0.835712,-5.49618,-0.00549618
0.172906,-0.000841732,-0.841732,-5.53577,-0.00553577
0.171902,-0.000848202,-0.848202,-5.57833,-0.00557833
0.170905,-0.000849157,-0.849157,-5.58461,-0.00558461
0.169908,-0.000832662,-0.832662,-5.47613,-0.00547613
0.168944,-0.000829055,-0.829055,-5.4524,-0.0054524
0.167934,-0.000832953,-0.832953,-5.47804,-0.00547804
0.166951,-0.000843031,-0.843031,-5.54432,-0.00554432
0.16595,-0.000848653,-0.848653,-5.5813,-0.0055813
0.164964,-0.000855442,-0.855442,-5.62595,-0.00562595
0.163968,-0.000858625,-0.858625,-5.64688,-0.00564688
0.162943,-0.000853003,-0.853003,-5.6099,-0.0056099
0.161951,-0.000850298,-0.850298,-5.59211,-0.00559211
0.160963,-0.000864857,-0.864857,-5.68786,-0.00568786
0.159946,-0.000875889,-0.875889,-5.76042,-0.00576042
0.158956,-0.000878966,-0.878966,-5.78065,-0.00578065
0.157937,-0.000877958,-0.877958,-5.77402,-0.00577402
0.1569411,-0.000885266,-0.885266,-5.82209,-0.00582209
0.155931,-0.000885861,-0.885861,-5.826,-0.005826
0.154929,-0.000900049,-0.900049,-5.91931,-0.00591931
0.1539079,-0.000906122,-0.906122,-5.95925,-0.00595925
0.152915,-0.000903311,-0.903311,-5.94076,-0.00594076
0.151926,-0.000904982,-0.904982,-5.95175,-0.00595175
0.150923,-0.000901189,-0.901189,-5.92681,-0.00592681
0.149909,-0.000899969,-0.899969,-5.91878,-0.00591878
0.1489049,-0.000895435,-0.895435,-5.88896,-0.00588896
0.147912,-0.000895912,-0.895912,-5.8921,-0.0058921
0.1468997,-0.000900632,-0.900632,-5.92314,-0.00592314
0.145877,-0.000906043,-0.906043,-5.95873,-0.00595873
0.144902,-0.000903762,-0.903762,-5.94373,-0.00594373
0.143915,-0.00091079,-0.91079,-5.98994,-0.00598994
0.142936,-0.000916067,-0.916067,-6.02465,-0.00602465
0.14196,-0.000904717,-0.904717,-5.95,-0.00595
0.140975,-0.000896151,-0.896151,-5.89367,-0.00589367
0.140004,-0.000897874,-0.897874,-5.90501,-0.00590501
0.13901,-0.000907501,-0.907501,-5.96832,-0.00596832
0.1379907,-0.000909278,-0.909278,-5.98,-0.00598
0.136982,-0.000904946,-0.904946,-5.95151,-0.00595151
0.135998,-0.000896999,-0.896999,-5.89925,-0.00589925
0.135009,-0.00089867,-0.89867,-5.91024,-0.00591024
0.134005,-0.000892623,-0.892623,-5.87047,-0.00587047
0.132982,-0.0008848,-0.8848,-5.81902,-0.00581902
0.131961,-0.00088549,-0.88549,-5.82356,-0.00582356
0.1309496,-0.000891059,-0.891059,-5.86018,-0.00586018
0.129937,-0.000899174,-0.899174,-5.91355,-0.00591355
0.128942,-0.000900553,-0.900553,-5.92262,-0.00592262
0.12795,-0.000893419,-0.893419,-5.8757,-0.0058757
0.126952,-0.00090111,-0.90111,-5.92628,-0.00592628
0.12598,-0.000925084,-0.925084,-6.08395,-0.00608395
0.125002,-0.000940386,-0.940386,-6.18459,-0.00618459
0.124003,-0.000946406,-0.946406,-6.22418,-0.00622418
0.122997,-0.000952399,-0.952399,-6.2636,-0.0062636
0.122001,-0.000950914,-0.950914,-6.25383,-0.00625383
0.120996,-0.000952956,-0.952956,-6.26726,-0.00626726
0.119999,-0.000946486,-0.946486,-6.2247,-0.0062247
0.118987,-0.000949801,-0.949801,-6.24651,-0.00624651
0.117979,-0.000950145,-0.950145,-6.24877,-0.00624877
0.116961,-0.000948978,-0.948978,-6.2411,-0.0062411
0.115971,-0.000957031,-0.957031,-6.29406,-0.00629406
0.1149819,-0.000956908,-0.956908,-6.29325,-0.00629325
0.113985,-0.000955211,-0.955211,-6.28209,-0.00628209
0.112988,-0.000950198,-0.950198,-6.24912,-0.00624912
0.11197,-0.000945213,-0.945213,-6.21633,-0.00621633
0.110963,-0.000942428,-0.942428,-6.19802,-0.00619802
0.109956,-0.00093548,-0.93548,-6.15232,-0.00615232
0.108949,-0.000944629,-0.944629,-6.2125,-0.0062125
0.107957,-0.000954733,-0.954733,-6.27895,-0.00627895
0.106975,-0.000958552,-0.958552,-6.30406,-0.00630406
0.106005,-0.000968364,-0.968364,-6.36859,-0.00636859
0.105021,-0.000971123,-0.971123,-6.38673,-0.00638673
0.104029,-0.000973297,-0.973297,-6.40104,-0.00640104
0.103025,-0.000977991,-0.977991,-6.43191,-0.00643191
0.102025,-0.000984117,-0.984117,-6.4722,-0.0064722
0.101021,-0.000980325,-0.980325,-6.44726,-0.00644726
0.100039,-0.000965792,-0.965792,-6.35168,-0.00635168
0.09901949,-0.000952161,-0.952161,-6.26203,-0.00626203
0.09801,-0.000952293,-0.952293,-6.2629,-0.0062629
0.097024,-0.000949509,-0.949509,-6.24459,-0.00624459
0.09602005,-0.000947599,-0.947599,-6.23203,-0.00623203
0.0950276,-0.000948998,-0.948998,-6.24123,-0.00624123
0.09402968,-0.000949376,-0.949376,-6.24372,-0.00624372
0.0930166,-0.000958101,-0.958101,-6.3011,-0.0063011
0.0920134,-0.000959374,-0.959374,-6.30947,-0.00630947
0.0910474,-0.000978601,-0.978601,-6.43592,-0.00643592
0.0900173,-0.000993346,-0.993346,-6.53289,-0.00653289
0.0890205,-0.0010108,-1.0108,-6.64765,-0.00664765
0.0880093,-0.0010179,-1.0179,-6.6944,-0.0066944
0.087016,-0.00102196,-1.02196,-6.72108,-0.00672108
0.08603362,-0.00102183,-1.02183,-6.72021,-0.00672021
0.0850224,-0.00101586,-1.01586,-6.68097,-0.00668097
0.0840051,-0.00101573,-1.01573,-6.6801,-0.0066801
0.0830087,-0.00102003,-1.02003,-6.70835,-0.00670835
0.0820054,-0.00102419,-1.02419,-6.73573,-0.00673573
0.0810169,-0.00102491,-1.02491,-6.74044,-0.00674044
0.0800201,-0.00102663,-1.02663,-6.75178,-0.00675178
0.0790099,-0.00102615,-1.02615,-6.74864,-0.00674864
0.0779752,-0.00102318,-1.02318,-6.72911,-0.00672911
0.076979,-0.00102432,-1.02432,-6.73661,-0.00673661
0.0759844,-0.00102734,-1.02734,-6.75649,-0.00675649
0.0749914,-0.00102878,-1.02878,-6.76591,-0.00676591
0.0740013,-0.00102754,-1.02754,-6.75779,-0.00675779
0.0730331,-0.00102676,-1.02676,-6.75265,-0.00675265
0.0720542,-0.00103397,-1.03397,-6.80009,-0.00680009
0.07105653,-0.00103602,-1.03602,-6.81352,-0.00681352
0.0700485,-0.00103405,-1.03405,-6.80062,-0.00680062
0.0690318,-0.00103106,-1.03106,-6.78091,-0.00678091
0.068035,-0.00103851,-1.03851,-6.82992,-0.00682992
0.0670529,-0.00103795,-1.03795,-6.82625,-0.00682625
0.0660499,-0.00103856,-1.03856,-6.83026,-0.00683026
0.0650536,-0.00104551,-1.04551,-6.87596,-0.00687596
0.06407401,-0.00105129,-1.05129,-6.91398,-0.00691398
0.0630452,-0.00106026,-1.06026,-6.97293,-0.00697293
0.0620622,-0.00106577,-1.06577,-7.00921,-0.00700921
0.0610633,-0.00108386,-1.08386,-7.12816,-0.00712816
0.0600591,-0.00108099,-1.08099,-7.10933,-0.00710933
0.05903263,-0.00107922,-1.07922,-7.09764,-0.00709764
0.0580301,-0.00108288,-1.08288,-7.12171,-0.00712171
0.0570159,-0.00108065,-1.08065,-7.10706,-0.00710706
0.0560143,-0.00108134,-1.08134,-7.11159,-0.00711159
0.0550277,-0.00107436,-1.07436,-7.06572,-0.00706572
0.0540405,-0.0010771,-1.0771,-7.08369,-0.00708369
0.0530573,-0.00107505,-1.07505,-7.07022,-0.00707022
0.0520964,-0.00107598,-1.07598,-7.07636,-0.00707636
0.0510977,-0.00107893,-1.07893,-7.09572,-0.00709572
0.0500871,-0.0010685,-1.0685,-7.02718,-0.00702718
0.0490778,-0.0010575,-1.0575,-6.9548,-0.0069548
0.0480789,-0.00106405,-1.06405,-6.99788,-0.00699788
0.0470677,-0.00106522,-1.06522,-7.00555,-0.00700555
0.04608072,-0.00106596,-1.06596,-7.01043,-0.00701043
0.0450623,-0.00107646,-1.07646,-7.0795,-0.0070795
0.0440785,-0.00109577,-1.09577,-7.20647,-0.00720647
0.0430828,-0.00109871,-1.09871,-7.22583,-0.00722583
0.04209,-0.00109964,-1.09964,-7.23194,-0.00723194
0.0410826,-0.00110693,-1.10693,-7.2799,-0.0072799
0.0400771,-0.00112226,-1.12226,-7.38071,-0.00738071
0.03906573,-0.00112674,-1.12674,-7.41019,-0.00741019
0.0380666,-0.00112215,-1.12215,-7.38001,-0.00738001
0.037045,-0.00112735,-1.12735,-7.4142,-0.0074142
0.0360376,-0.00112892,-1.12892,-7.42449,-0.00742449
0.035026,-0.0011308,-1.1308,-7.43687,-0.00743687
0.0340345,-0.00113746,-1.13746,-7.48065,-0.00748065
0.0330473,-0.00114722,-1.14722,-7.54483,-0.00754483
0.0320561,-0.00114516,-1.14516,-7.53134,-0.00753134
0.0310699,-0.0011456,-1.1456,-7.53419,-0.00753419
0.0300939,-0.00113982,-1.13982,-7.49617,-0.00749617
0.0290914,-0.00114387,-1.14387,-7.52286,-0.00752286
0.0281023,-0.00114072,-1.14072,-7.5021,-0.0075021
0.027115,-0.00115135,-1.15135,-7.57204,-0.00757204
0.0260905,-0.00115148,-1.15148,-7.57291,-0.00757291
0.02507247,-0.0011457,-1.1457,-7.53489,-0.00753489
0.0240286,-0.00114305,-1.14305,-7.51745,-0.00751745
0.023035,-0.00114364,-1.14364,-7.52129,-0.00752129
0.0220327,-0.00115583,-1.15583,-7.60152,-0.00760152
0.0210327,-0.00115687,-1.15687,-7.60832,-0.00760832
0.0200341,-0.00116578,-1.16578,-7.66692,-0.00766692
0.0190653,-0.00117628,-1.17628,-7.73599,-0.00773599
0.0180851,-0.00118864,-1.18864,-7.81727,-0.00781727
0.0170792,-0.00120264,-1.20264,-7.90936,-0.00790936
0.0160724,-0.00119678,-1.19678,-7.87081,-0.00787081
0.0150763,-0.00120211,-1.20211,-7.90587,-0.00790587
0.0140697,-0.00120864,-1.20864,-7.94877,-0.00794877
0.0130808,-0.00121789,-1.21789,-8.00964,-0.00800964
0.0120894,-0.00121272,-1.21272,-7.97563,-0.00797563
0.0110979,-0.00120463,-1.20463,-7.92243,-0.00792243
0.0101181,-0.00120092,-1.20092,-7.89802,-0.00789802
0.00912747,-0.00119914,-1.19914,-7.88633,-0.00788633
0.00812518,-0.00120023,-1.20023,-7.89348,-0.00789348
0.0071076,-0.00121036,-1.21036,-7.96011,-0.00796011
0.0060998,-0.00121967,-1.21967,-8.02133,-0.00802133
0.00508159,-0.00123372,-1.23372,-8.11377,-0.00811377
0.00407187,-0.00124139,-1.24139,-8.16417,-0.00816417
0.00307912,-0.00124545,-1.24545,-8.19086,-0.00819086
0.00207428,-0.00125255,-1.25255,-8.2376,-0.0082376
0.00107072,-0.00124706,-1.24706,-8.2015,-0.0082015
8.71016e-05,-0.0012433,-1.2433,-8.17673,-0.00817673
-0.000894394,-0.00123619,-1.23619,-8.12999,-0.00812999
-0.00189541,-0.00124749,-1.24749,-8.20429,-0.00820429
-0.00291532,-0.00125229,-1.25229,-8.23586,-0.00823586
-0.00392377,-0.0012639,-1.2639,-8.31225,-0.00831225
-0.004942188,-0.00126059,-1.26059,-8.29045,-0.00829045
-0.00592538,-0.00125982,-1.25982,-8.28539,-0.00828539
-0.00692683,-0.00124685,-1.24685,-8.2001,-0.0082001
-0.00791893,-0.00123892,-1.23892,-8.14795,-0.00814795
-0.00892483,-0.00123258,-1.23258,-8.10627,-0.00810627
-0.00991645,-0.00121928,-1.21928,-8.01879,-0.00801879
-0.0109129,-0.00121988,-1.21988,-8.02272,-0.00802272
-0.0118689,-0.00122853,-1.22853,-8.07958,-0.00807958
-0.0129024,-0.00123767,-1.23767,-8.13976,-0.00813976
-0.01390213,-0.00124751,-1.24751,-8.20446,-0.00820446
-0.0149297,-0.00125688,-1.25688,-8.26603,-0.00826603
-0.0159335,-0.0012599,-1.2599,-8.28591,-0.00828591
-0.0169277,-0.00126311,-1.26311,-8.30702,-0.00830702
-0.017913,-0.00127308,-1.27308,-8.3726,-0.0083726
-0.0188873,-0.00128846,-1.28846,-8.47376,-0.00847376
-0.0198993,-0.00130313,-1.30313,-8.57021,-0.00857021
-0.02090863,-0.00130822,-1.30822,-8.60369,-0.00860369
-0.0218884,-0.00131599,-1.31599,-8.65479,-0.00865479
-0.0228903,-0.00132596,-1.32596,-8.72037,-0.00872037
-0.0239045,-0.0013276,-1.3276,-8.73119,-0.00873119
-0.0249023,-0.00132904,-1.32904,-8.74061,-0.00874061
-0.0258694,-0.00134301,-1.34301,-8.83252,-0.00883252
-0.0268577,-0.0013554,-1.3554,-8.91397,-0.00891397
-0.02786929,-0.00136412,-1.36412,-8.97135,-0.00897135
-0.0288771,-0.00136197,-1.36197,-8.95723,-0.00895723
-0.0298745,-0.00136253,-1.36253,-8.96089,-0.00896089
-0.0308795,-0.00136478,-1.36478,-8.97566,-0.00897566
-0.0318642,-0.00136296,-1.36296,-8.96368,-0.00896368
-0.0328778,-0.00135969,-1.35969,-8.94223,-0.00894223
-0.03389727,-0.00136558,-1.36558,-8.98095,-0.00898095
-0.0349,-0.00137168,-1.37168,-9.02106,-0.00902106
-0.0358704,-0.00138762,-1.38762,-9.12588,-0.00912588
-0.0368738,-0.00139112,-1.39112,-9.14891,-0.00914891
-0.0378496,-0.0014061,-1.4061,-9.24745,-0.00924745
-0.0388635,-0.00142453,-1.42453,-9.36867,-0.00936867
-0.0398612,-0.00143917,-1.43917,-9.46494,-0.00946494
-0.0408683,-0.00145156,-1.45156,-9.54639,-0.00954639
-0.0418783,-0.00145426,-1.45426,-9.56418,-0.00956418
-0.0428765,-0.00145498,-1.45498,-9.56889,-0.00956889
-0.0438809,-0.00145437,-1.45437,-9.56488,-0.00956488
-0.0448758,-0.00145312,-1.45312,-9.55668,-0.00955668
-0.0458734,-0.00145246,-1.45246,-9.55232,-0.00955232
-0.0468577,-0.00145668,-1.45668,-9.58005,-0.00958005
-0.0478581,-0.00146678,-1.46678,-9.64651,-0.00964651
-0.0488718,-0.00147431,-1.47431,-9.69604,-0.00969604
-0.0498669,-0.00148534,-1.48534,-9.76859,-0.00976859
-0.0508342,-0.00150783,-1.50783,-9.9165,-0.0099165
-0.0518435,-0.00151821,-1.51821,-9.98476,-0.00998476
-0.0528107,-0.00153648,-1.53648,-10.1049,-0.0101049
-0.0538391,-0.00153876,-1.53876,-10.1199,-0.0101199
-0.0548539,-0.00155454,-1.55454,-10.2236,-0.0102236
-0.05585178,-0.00156769,-1.56769,-10.3101,-0.0103101
-0.0568844,-0.0015696,-1.5696,-10.3227,-0.0103227
-0.0578736,-0.00156968,-1.56968,-10.3232,-0.0103232
-0.0588565,-0.00157437,-1.57437,-10.3541,-0.0103541
-0.0598493,-0.00157214,-1.57214,-10.3394,-0.0103394
-0.0608709,-0.00157443,-1.57443,-10.3544,-0.0103544
-0.0618662,-0.00159081,-1.59081,-10.4622,-0.0104622
-0.0628668,-0.00161367,-1.61367,-10.6126,-0.0106126
-0.0638737,-0.0016272,-1.6272,-10.7015,-0.0107015
-0.064876,-0.00163561,-1.63561,-10.7568,-0.0107568
-0.06587705,-0.00164858,-1.64858,-10.8421,-0.0108421
-0.0668908,-0.00166722,-1.66722,-10.9647,-0.0109647
-0.0678751,-0.00168883,-1.68883,-11.1069,-0.0111069
-0.0688451,-0.00172063,-1.72063,-11.316,-0.011316
-0.0698247,-0.00173964,-1.73964,-11.441,-0.011441
-0.0708321,-0.0017585,-1.7585,-11.565,-0.011565
-0.0718458,-0.00177306,-1.77306,-11.6608,-0.0116608
-0.0728422,-0.00177865,-1.77865,-11.6975,-0.0116975
-0.0738468,-0.00177688,-1.77688,-11.6859,-0.0116859
-0.0748557,-0.0017795,-1.7795,-11.7032,-0.0117032
-0.0758631,-0.00179319,-1.79319,-11.7932,-0.0117932
-0.0768851,-0.00179881,-1.79881,-11.8302,-0.0118302
-0.0778886,-0.00180719,-1.80719,-11.8853,-0.0118853
-0.07885316,-0.00182565,-1.82565,-12.0067,-0.0120067
-0.079844,-0.00184244,-1.84244,-12.1171,-0.0121171
-0.0808232,-0.00187816,-1.87816,-12.352,-0.012352
-0.0818074,-0.00190852,-1.90852,-12.5517,-0.0125517
-0.0827972,-0.00194958,-1.94958,-12.8217,-0.0128217
-0.0838071,-0.00198132,-1.98132,-13.0305,-0.0130305
-0.0848075,-0.00200203,-2.00203,-13.1667,-0.0131667
-0.0858204,-0.00202179,-2.02179,-13.2966,-0.0132966
-0.0868363,-0.00204632,-2.04632,-13.4579,-0.0134579
-0.0878299,-0.00206327,-2.06327,-13.5694,-0.0135694
-0.0888292,-0.00207382,-2.07382,-13.6388,-0.0136388
-0.0897844,-0.00210026,-2.10026,-13.8127,-0.0138127
-0.0907531,-0.00212922,-2.12922,-14.0032,-0.0140032
-0.0917472,-0.0021559,-2.1559,-14.1786,-0.0141786
-0.0927537,-0.00218751,-2.18751,-14.3865,-0.0143865
-0.0937405,-0.00221397,-2.21397,-14.5605,-0.0145605
-0.0947553,-0.00224119,-2.24119,-14.7395,-0.0147395
-0.0957457,-0.00226763,-2.26763,-14.9134,-0.0149134
-0.0967586,-0.00228185,-2.28185,-15.0069,-0.0150069
-0.0977698,-0.00228837,-2.28837,-15.0498,-0.0150498
-0.0987921,-0.00231797,-2.31797,-15.2445,-0.0152445
-0.0998005,-0.00234154,-2.34154,-15.3995,-0.0153995
-0.100784,-0.00238188,-2.38188,-15.6648,-0.0156648
-0.101801,-0.00241678,-2.41678,-15.8943,-0.0158943
-0.102793,-0.00243882,-2.43882,-16.0392,-0.0160392
-0.103821,-0.00246303,-2.46303,-16.1985,-0.0161985
-0.1048194,-0.00250949,-2.50949,-16.5041,-0.0165041
-0.105804,-0.00255532,-2.55532,-16.8054,-0.0168054
-0.1068,-0.00259409,-2.59409,-17.0604,-0.0170604
-0.107793,-0.00264334,-2.64334,-17.3843,-0.0173843
-0.108805,-0.00269169,-2.69169,-17.7023,-0.0177023
-0.10979,-0.00273709,-2.73709,-18.0009,-0.0180009
-0.11079,-0.00277819,-2.77819,-18.2712,-0.0182712
-0.111745,-0.00282036,-2.82036,-18.5485,-0.0185485
-0.112768,-0.0028586,-2.8586,-18.8,-0.0188
-0.113766,-0.00289584,-2.89584,-19.0449,-0.0190449
-0.114741,-0.00294041,-2.94041,-19.3381,-0.0193381
-0.115734,-0.00298653,-2.98653,-19.6414,-0.0196414
-0.116731,-0.00303804,-3.03804,-19.9801,-0.0199801
-0.1177361,-0.00309089,-3.09089,-20.3277,-0.0203277
-0.118741,-0.00314329,-3.14329,-20.6723,-0.0206723
-0.119755,-0.00318291,-3.18291,-20.9329,-0.0209329
-0.120772,-0.00323728,-3.23728,-21.2905,-0.0212905
-0.121779,-0.00327796,-3.27796,-21.558,-0.021558
-0.122784,-0.00333005,-3.33005,-21.9006,-0.0219006
-0.123794,-0.00337617,-3.37617,-22.2039,-0.0222039
-0.124772,-0.00343899,-3.43899,-22.617,-0.022617
-0.125779,-0.00348728,-3.48728,-22.9347,-0.0229347
-0.126766,-0.0035469,-3.5469,-23.3267,-0.0233267
-0.127776,-0.00360342,-3.60342,-23.6984,-0.0236984
-0.128737,-0.00366088,-3.66088,-24.0764,-0.0240764
-0.129744,-0.00370645,-3.70645,-24.376,-0.024376
-0.130766,-0.00375689,-3.75689,-24.7077,-0.0247077
-0.1317682,-0.00380513,-3.80513,-25.025,-0.025025
-0.132743,-0.00385069,-3.85069,-25.3246,-0.0253246
-0.133732,-0.00389925,-3.89925,-25.644,-0.025644
-0.134723,-0.00395399,-3.95399,-26.004,-0.026004
-0.13572,-0.00400212,-4.00212,-26.3205,-0.0263205
-0.136709,-0.00405924,-4.05924,-26.6962,-0.0266962
-0.1376939,-0.00412591,-4.12591,-27.1347,-0.0271347
-0.138706,-0.00419367,-4.19367,-27.5803,-0.0275803
-0.139712,-0.00427517,-4.27517,-28.1163,-0.0281163
-0.140725,-0.00434605,-4.34605,-28.5825,-0.0285825
-0.141721,-0.0043957,-4.3957,-28.909,-0.028909
-0.142718,-0.00444633,-4.44633,-29.2419,-0.0292419
-0.143728,-0.0045039,-4.5039,-29.6206,-0.0296206
-0.144745,-0.00454997,-4.54997,-29.9235,-0.0299235
-0.145736,-0.00460454,-4.60454,-30.2825,-0.0302825
-0.146704,-0.00465061,-4.65061,-30.5854,-0.0305854
-0.147691,-0.0046832,-4.6832,-30.7998,-0.0307998
-0.148684,-0.00472301,-4.72301,-31.0616,-0.0310616
-0.1496938,-0.00475438,-4.75438,-31.2679,-0.0312679
-0.150686,-0.0047978,-4.7978,-31.5534,-0.0315534
-0.1516825,-0.0048254,-4.8254,-31.735,-0.031735
-0.152692,-0.004855,-4.855,-31.9296,-0.0319296
-0.153704,-0.00489178,-4.89178,-32.1715,-0.0321715
-0.154705,-0.00491981,-4.91981,-32.3559,-0.0323559
-0.155699,-0.00493569,-4.93569,-32.4603,-0.0324603
-0.156711,-0.00493498,-4.93498,-32.4557,-0.0324557
-0.1577,-0.00493207,-4.93207,-32.4365,-0.0324365
-0.158715,-0.00491748,-4.91748,-32.3406,-0.0323406
-0.159733,-0.00489841,-4.89841,-32.2151,-0.0322151
-0.160747,-0.00487258,-4.87258,-32.0453,-0.0320453
-0.16177,-0.0048481,-4.8481,-31.8843,-0.0318843
-0.162758,-0.00480591,-4.80591,-31.6068,-0.0316068
-0.163783,-0.00475982,-4.75982,-31.3037,-0.0313037
-0.16479,-0.00470331,-4.70331,-30.932,-0.030932
-0.165804,-0.00463226,-4.63226,-30.4647,-0.0304647
-0.1668389,-0.00454872,-4.54872,-29.9153,-0.0299153
-0.167826,-0.0044625,-4.4625,-29.3483,-0.0293483
-0.168826,-0.00437992,-4.37992,-28.8052,-0.0288052
-0.169818,-0.00429065,-4.29065,-28.2181,-0.0282181
-0.170819,-0.00420659,-4.20659,-27.6652,-0.0276652
-0.171817,-0.00411111,-4.11111,-27.0374,-0.0270374
-0.1728293,-0.00401689,-4.01689,-26.4177,-0.0264177
-0.173836,-0.00391553,-3.91553,-25.7511,-0.0257511
-0.174843,-0.00380165,-3.80165,-25.0021,-0.0250021
-0.175837,-0.00369422,-3.69422,-24.2956,-0.0242956
-0.1768433,-0.00359682,-3.59682,-23.6551,-0.0236551
-0.177847,-0.00351484,-3.51484,-23.1159,-0.0231159
-0.1788732,-0.00343687,-3.43687,-22.6031,-0.0226031
-0.179861,-0.00335872,-3.35872,-22.0891,-0.0220891
-0.18085,-0.0032742,-3.2742,-21.5332,-0.0215332
-0.181823,-0.00318398,-3.18398,-20.9399,-0.0209399
-0.182814,-0.00309238,-3.09238,-20.3375,-0.0203375
-0.183813,-0.00300221,-3.00221,-19.7445,-0.0197445
-0.184804,-0.00291368,-2.91368,-19.1623,-0.0191623
-0.185799,-0.00283959,-2.83959,-18.675,-0.018675
-0.1867899,-0.00277859,-2.77859,-18.2738,-0.0182738
-0.187786,-0.00271821,-2.71821,-17.8767,-0.0178767
-0.1887828,-0.00266079,-2.66079,-17.4991,-0.0174991
-0.18978,-0.00260324,-2.60324,-17.1206,-0.0171206
-0.190784,-0.00256823,-2.56823,-16.8904,-0.0168904
-0.1917899,-0.00251729,-2.51729,-16.5553,-0.0165553
-0.192808,-0.00247836,-2.47836,-16.2993,-0.0162993
-0.193806,-0.00243773,-2.43773,-16.0321,-0.0160321
-0.19481,-0.00238771,-2.38771,-15.7032,-0.0157032
-0.195379,-0.00235106,-2.35106,-15.4621,-0.0154621
-0.195371,-0.00236156,-2.36156,-15.5312,-0.0155312