File: literature/rawdata/engstfeld_2018_polycrystalline_17743/1708030001Cu100_UHV_C01_cycle34.csv
E,<I>,I (raw),j,j
V vs. RHE,mA,\g(m)A,\g(m)A/cm\+(-2),mA/cm\+(-2)
-0.195501,-0.00242696,-2.42696,-15.9613,-0.0159613
-0.196967,-0.00236196,-2.36196,-15.5338,-0.0155338
-0.198487,-0.0017737,-1.7737,-11.665,-0.011665
-0.1983552,-0.000753208,-0.753208,-4.95359,-0.00495359
-0.196702,-6.73749e-05,-0.0673749,-0.443101,-0.000443101
-0.194444,0.00017995,0.17995,1.18347,0.00118347
-0.192241,0.00023909,0.23909,1.57241,0.00157241
-0.190176,0.000317297,0.317297,2.08675,0.00208675
-0.188193,0.00043197,0.43197,2.84091,0.00284091
-0.18624,0.000542717,0.542717,3.56926,0.00356926
-0.184243,0.000666061,0.666061,4.38045,0.00438045
-0.182238,0.000818551,0.818551,5.38333,0.00538333
-0.18026,0.000942002,0.942002,6.19522,0.00619522
-0.178259,0.00107259,1.07259,7.05402,0.00705402
-0.176297,0.00119559,1.19559,7.86295,0.00786295
-0.174282,0.00132498,1.32498,8.71391,0.00871391
-0.17225,0.00146736,1.46736,9.65033,0.00965033
-0.170257,0.00158795,1.58795,10.4434,0.0104434
-0.1682809,0.00173638,1.73638,11.4196,0.0114196
-0.16631,0.00189473,1.89473,12.461,0.012461
-0.164365,0.00204041,2.04041,13.4191,0.0134191
-0.162356,0.00217027,2.17027,14.2731,0.0142731
-0.160325,0.00229266,2.29266,15.078,0.015078
-0.158286,0.00241675,2.41675,15.8941,0.0158941
-0.156295,0.00254078,2.54078,16.7099,0.0167099
-0.154343,0.00265243,2.65243,17.4441,0.0174441
-0.152382,0.0027582,2.7582,18.1397,0.0181397
-0.150369,0.00285627,2.85627,18.7847,0.0187847
-0.148318,0.00291482,2.91482,19.1698,0.0191698
-0.146267,0.00294789,2.94789,19.3873,0.0193873
-0.144273,0.00299536,2.99536,19.6995,0.0196995
-0.142309,0.00304018,3.04018,19.9942,0.0199942
-0.140325,0.00305962,3.05962,20.1221,0.0201221
-0.138331,0.0030785,3.0785,20.2462,0.0202462
-0.136335,0.00308057,3.08057,20.2598,0.0202598
-0.134333,0.00309516,3.09516,20.3558,0.0203558
-0.132324,0.00306978,3.06978,20.1889,0.0201889
-0.130296,0.0030344,3.0344,19.9562,0.0199562
-0.128308,0.00299979,2.99979,19.7286,0.0197286
-0.126337,0.0029603,2.9603,19.4689,0.0194689
-0.124334,0.00290933,2.90933,19.1337,0.0191337
-0.122331,0.00285088,2.85088,18.7493,0.0187493
-0.120324,0.00280084,2.80084,18.4201,0.0184201
-0.118333,0.00276525,2.76525,18.1861,0.0181861
-0.116325,0.00271224,2.71224,17.8374,0.0178374
-0.1143086,0.00263665,2.63665,17.3404,0.0173404
-0.112308,0.00255765,2.55765,16.8208,0.0168208
-0.110294,0.00248774,2.48774,16.361,0.016361
-0.108283,0.00240882,2.40882,15.842,0.015842
-0.106276,0.00232361,2.32361,15.2816,0.0152816
-0.104268,0.00223599,2.23599,14.7053,0.0147053
-0.102304,0.00214462,2.14462,14.1044,0.0141044
-0.1003232,0.00208042,2.08042,13.6822,0.0136822
-0.0983105,0.00200219,2.00219,13.1677,0.0131677
-0.0962763,0.00192549,1.92549,12.6633,0.0126633
-0.09428928,0.00183999,1.83999,12.101,0.012101
-0.09233287,0.00176447,1.76447,11.6043,0.0116043
-0.0903342,0.001697,1.697,11.1606,0.0111606
-0.08836741,0.00163258,1.63258,10.7369,0.0107369
-0.0863565,0.00158116,1.58116,10.3987,0.0103987
-0.0843425,0.00152157,1.52157,10.0068,0.0100068
-0.0823397,0.00146943,1.46943,9.66393,0.00966393
-0.0803905,0.00142769,1.42769,9.38941,0.00938941
-0.0783784,0.00139889,1.39889,9.2,0.0092
-0.0763316,0.00134468,1.34468,8.8435,0.0088435
-0.0743279,0.00127772,1.27772,8.40311,0.00840311
-0.072352,0.00120786,1.20786,7.9437,0.0079437
-0.0703467,0.0011457,1.1457,7.53488,0.00753488
-0.0683494,0.00110804,1.10804,7.28721,0.00728721
-0.0663412,0.00108884,1.08884,7.16094,0.00716094
-0.0643591,0.0010527,1.0527,6.92321,0.00692321
-0.0623609,0.00100949,1.00949,6.6391,0.0066391
-0.0603751,0.000976446,0.976446,6.42175,0.00642175
-0.0583619,0.000950515,0.950515,6.2512,0.0062512
-0.0563745,0.000916967,0.916967,6.03057,0.00603057
-0.0543883,0.000887636,0.887636,5.83767,0.00583767
-0.052377,0.000871724,0.871724,5.73302,0.00573302
-0.0503794,0.000848307,0.848307,5.57902,0.00557902
-0.0484037,0.000817252,0.817252,5.37478,0.00537478
-0.0464031,0.000789512,0.789512,5.19234,0.00519234
-0.0443941,0.000773388,0.773388,5.0863,0.0050863
-0.0424075,0.000775297,0.775297,5.09886,0.00509886
-0.04040039,0.000769224,0.769224,5.05892,0.00505892
-0.0383894,0.000752967,0.752967,4.952,0.004952
-0.03636,0.000742412,0.742412,4.88259,0.00488259
-0.0343559,0.000735411,0.735411,4.83654,0.00483654
-0.0323475,0.000700829,0.700829,4.60911,0.00460911
-0.0303775,0.000651688,0.651688,4.28592,0.00428592
-0.0283812,0.000654578,0.654578,4.30493,0.00430493
-0.0263921,0.000635829,0.635829,4.18162,0.00418162
-0.0244327,0.000605039,0.605039,3.97913,0.00397913
-0.022391,0.000582868,0.582868,3.83332,0.00383332
-0.0203562,0.000575787,0.575787,3.78675,0.00378675
-0.018341,0.000578944,0.578944,3.80751,0.00380751
-0.0163795,0.000560883,0.560883,3.68873,0.00368873
-0.0144248,0.00054041,0.54041,3.55409,0.00355409
-0.0124546,0.000507525,0.507525,3.33781,0.00333781
-0.0104598,0.000504237,0.504237,3.31619,0.00331619
-0.00845011,0.000485832,0.485832,3.19515,0.00319515
-0.00641793,0.000465703,0.465703,3.06277,0.00306277
-0.00444157,0.000459418,0.459418,3.02143,0.00302143
-0.00245099,0.000461115,0.461115,3.03259,0.00303259
-0.000448105,0.000443241,0.443241,2.91504,0.00291504
0.00156751,0.000422343,0.422343,2.7776,0.0027776
0.00358632,0.000446078,0.446078,2.9337,0.0029337
0.00556183,0.000462918,0.462918,3.04445,0.00304445
0.00757193,0.000450534,0.450534,2.963,0.002963
0.00956336,0.000427594,0.427594,2.81214,0.00281214
0.0115987,0.00039691,0.39691,2.61034,0.00261034
0.0136078,0.000401313,0.401313,2.63929,0.00263929
0.015585,0.000399827,0.399827,2.62953,0.00262953
0.0175847,0.000393224,0.393224,2.5861,0.0025861
0.0196183,0.00039219,0.39219,2.57929,0.00257929
0.0216155,0.000398024,0.398024,2.61767,0.00261767
0.02355485,0.000412751,0.412751,2.71452,0.00271452
0.02555,0.000423298,0.423298,2.78388,0.00278388
0.0275537,0.000418657,0.418657,2.75336,0.00275336
0.0295689,0.000414944,0.414944,2.72894,0.00272894
0.0315637,0.000414652,0.414652,2.72702,0.00272702
0.0335706,0.000422343,0.422343,2.7776,0.0027776
0.0355752,0.000422369,0.422369,2.77778,0.00277778
0.0375957,0.000430378,0.430378,2.83045,0.00283045
0.0395821,0.000433057,0.433057,2.84806,0.00284806
0.0415654,0.000448465,0.448465,2.9494,0.0029494
0.0435515,0.000451568,0.451568,2.9698,0.0029698
0.04553787,0.000472598,0.472598,3.10811,0.00310811
0.0475327,0.000499198,0.499198,3.28305,0.00328305
0.0495538,0.000476391,0.476391,3.13305,0.00313305
0.0515711,0.000442657,0.442657,2.9112,0.0029112
0.0535651,0.000407571,0.407571,2.68045,0.00268045
0.0555355,0.000396565,0.396565,2.60807,0.00260807
0.0575053,0.000390439,0.390439,2.56778,0.00256778
0.0595324,0.000365776,0.365776,2.40558,0.00240558
0.06155226,0.000363416,0.363416,2.39006,0.00239006
0.0635488,0.000339733,0.339733,2.23431,0.00223431
0.0655574,0.000341706,0.341706,2.24728,0.00224728
0.0675478,0.000352145,0.352145,2.31593,0.00231593
0.0695492,0.000352277,0.352277,2.3168,0.0023168
0.0715531,0.000349439,0.349439,2.29814,0.00229814
0.0735418,0.000342544,0.342544,2.25279,0.00225279
0.0755235,0.000336604,0.336604,2.21373,0.00221373
0.0775361,0.000313584,0.313584,2.06234,0.00206234
0.0795122,0.00032886,0.32886,2.1628,0.0021628
0.08150325,0.000342253,0.342253,2.25088,0.00225088
0.08352799,0.000333315,0.333315,2.1921,0.0021921
0.085561,0.000340661,0.340661,2.24041,0.00224041
0.0875149,0.000328117,0.328117,2.15791,0.00215791
0.0895277,0.000317456,0.317456,2.0878,0.0020878
0.0915213,0.000303507,0.303507,1.99606,0.00199606
0.0935129,0.00029685,0.29685,1.95228,0.00195228
0.0955298,0.000301385,0.301385,1.98211,0.00198211
0.0975293,0.000307564,0.307564,2.02274,0.00202274
0.0995286,0.000304329,0.304329,2.00147,0.00200147
0.101547,0.000328727,0.328727,2.16193,0.00216193
0.103499,0.000325492,0.325492,2.14065,0.00214065
0.105495,0.000329258,0.329258,2.16541,0.00216541
0.107463,0.000325564,0.325564,2.14112,0.00214112
0.109481,0.000320877,0.320877,2.1103,0.0021103
0.1114848,0.000326606,0.326606,2.14797,0.00214797
0.113482,0.000321567,0.321567,2.11483,0.00211483
0.115492,0.000309978,0.309978,2.03862,0.00203862
0.1175011,0.000321779,0.321779,2.11623,0.00211623
0.119494,0.000313956,0.313956,2.06478,0.00206478
0.121506,0.000319207,0.319207,2.09931,0.00209931
0.12349,0.000316475,0.316475,2.08135,0.00208135
0.125523,0.000307564,0.307564,2.02274,0.00202274
0.12753,0.000293111,0.293111,1.92769,0.00192769
0.129523,0.00029502,0.29502,1.94025,0.00194025
0.131487,0.000302393,0.302393,1.98873,0.00198873
0.133477,0.000306,0.306,2.01245,0.00201245
0.135462,0.000299874,0.299874,1.97216,0.00197216
0.137487,0.000295551,0.295551,1.94373,0.00194373
0.139473,0.000297752,0.297752,1.95821,0.00195821
0.141474,0.000286508,0.286508,1.88426,0.00188426
0.143454,0.000293562,0.293562,1.93065,0.00193065
0.145459,0.000296983,0.296983,1.95315,0.00195315
0.147446,0.000285314,0.285314,1.87641,0.00187641
0.149445,0.000288444,0.288444,1.89699,0.00189699
0.15146,0.000294198,0.294198,1.93484,0.00193484
0.153426,0.000278896,0.278896,1.8342,0.0018342
0.1554437,0.00028245,0.28245,1.85758,0.00185758
0.157473,0.000282397,0.282397,1.85723,0.00185723
0.15949,0.000279851,0.279851,1.84048,0.00184048
0.161476,0.000268845,0.268845,1.7681,0.0017681
0.163482,0.000266883,0.266883,1.75519,0.00175519
0.165446,0.000278048,0.278048,1.82862,0.00182862
0.167478,0.000278499,0.278499,1.83159,0.00183159
0.169471,0.000259524,0.259524,1.7068,0.0017068
0.171449,0.000253835,0.253835,1.66938,0.00166938
0.1734561,0.000266167,0.266167,1.75049,0.00175049
0.175457,0.000277915,0.277915,1.82775,0.00182775
0.177453,0.000260863,0.260863,1.7156,0.0017156
0.179465,0.000257415,0.257415,1.69293,0.00169293
0.181446,0.000249061,0.249061,1.63799,0.00163799
0.183439,0.000260253,0.260253,1.71159,0.00171159
0.185458,0.000257123,0.257123,1.69101,0.00169101
0.187468,0.000248398,0.248398,1.63363,0.00163363
0.1894253,0.00025837,0.25837,1.69921,0.00169921
0.191452,0.000273168,0.273168,1.79653,0.00179653
0.193456,0.000270304,0.270304,1.77769,0.00177769
0.195465,0.000258556,0.258556,1.70043,0.00170043
0.197458,0.00026439,0.26439,1.7388,0.0017388
0.199434,0.000259378,0.259378,1.70584,0.00170584
0.201439,0.000263488,0.263488,1.73287,0.00173287
0.203447,0.000249141,0.249141,1.63851,0.00163851
0.205447,0.000226652,0.226652,1.49061,0.00149061
0.207452,0.000216044,0.216044,1.42085,0.00142085
0.209444,0.000216071,0.216071,1.42102,0.00142102
0.2114137,0.000223541,0.223541,1.47015,0.00147015
0.213403,0.00023848,0.23848,1.5684,0.0015684
0.215425,0.000234184,0.234184,1.54014,0.00154014
0.21745,0.000245746,0.245746,1.61619,0.00161619
0.219461,0.000226493,0.226493,1.48956,0.00148956
0.2214212,0.00023962,0.23962,1.5759,0.0015759
0.223434,0.000243651,0.243651,1.60241,0.00160241
0.2254293,0.000252111,0.252111,1.65805,0.00165805
0.227442,0.000247974,0.247974,1.63084,0.00163084
0.229432,0.000251395,0.251395,1.65334,0.00165334
0.231374,0.000232513,0.232513,1.52916,0.00152916
0.233372,0.000242591,0.242591,1.59543,0.00159543
0.23539,0.000241318,0.241318,1.58706,0.00158706
0.237386,0.000242803,0.242803,1.59683,0.00159683
0.239391,0.000226016,0.226016,1.48643,0.00148643
0.241401,0.000227342,0.227342,1.49515,0.00149515
0.2433861,0.000248717,0.248717,1.63572,0.00163572
0.245401,0.000248611,0.248611,1.63502,0.00163502
0.247379,0.000252429,0.252429,1.66014,0.00166014
0.249391,0.000252615,0.252615,1.66136,0.00166136
0.251394,0.000255691,0.255691,1.68159,0.00168159
0.253413,0.000247344,0.247344,1.62669,0.00162669
0.255422,0.000238506,0.238506,1.56857,0.00156857
0.257425,0.000237499,0.237499,1.56195,0.00156195
0.2594043,0.000250202,0.250202,1.64549,0.00164549
0.261377,0.000258609,0.258609,1.70078,0.00170078
0.263377,0.000266458,0.266458,1.7524,0.0017524
0.2653847,0.000262162,0.262162,1.72415,0.00172415
0.267407,0.00027696,0.27696,1.82147,0.00182147
0.269394,0.000284041,0.284041,1.86804,0.00186804
0.271378,0.000305151,0.305151,2.00687,0.00200687
0.2734,0.000317775,0.317775,2.08989,0.00208989
0.2753489,0.000312285,0.312285,2.05379,0.00205379
0.277358,0.000311065,0.311065,2.04577,0.00204577
0.279328,0.000332785,0.332785,2.18861,0.00218861
0.28133,0.000317695,0.317695,2.08937,0.00208937
0.283357,0.000296612,0.296612,1.95071,0.00195071
0.285382,0.000276271,0.276271,1.81694,0.00181694
0.28738,0.000278366,0.278366,1.83072,0.00183072
0.2893351,0.000281442,0.281442,1.85095,0.00185095
0.291347,0.000285473,0.285473,1.87746,0.00187746
0.293359,0.000294411,0.294411,1.93624,0.00193624
0.295332,0.000307378,0.307378,2.02151,0.00202151
0.295941,0.000311649,0.311649,2.0496,0.0020496
0.297447,0.000296453,0.296453,1.94966,0.00194966
0.298945,6.03983e-05,0.0603983,0.397219,0.000397219
0.298848,-0.000352306,-0.352306,-2.31699,-0.00231699
0.2972616,-0.000610849,-0.610849,-4.01734,-0.00401734
0.295073,-0.000656649,-0.656649,-4.31855,-0.00431855
0.292901,-0.000619309,-0.619309,-4.07298,-0.00407298
0.290823,-0.0006196,-0.6196,-4.07489,-0.00407489
0.288815,-0.000639252,-0.639252,-4.20413,-0.00420413
0.286876,-0.000647844,-0.647844,-4.26064,-0.00426064
0.284891,-0.000668821,-0.668821,-4.3986,-0.0043986
0.28286,-0.000677863,-0.677863,-4.45807,-0.00445807
0.280871,-0.000673383,-0.673383,-4.4286,-0.0044286
0.278904,-0.000664499,-0.664499,-4.37017,-0.00437017
0.276918,-0.000643336,-0.643336,-4.23099,-0.00423099
0.274921,-0.000633762,-0.633762,-4.16803,-0.00416803
0.272939,-0.00063164,-0.63164,-4.15408,-0.00415408
0.270919,-0.00063957,-0.63957,-4.20623,-0.00420623
0.268929,-0.000684256,-0.684256,-4.50011,-0.00450011
0.266943,-0.000709583,-0.709583,-4.66668,-0.00466668
0.2649692,-0.000698046,-0.698046,-4.59081,-0.00459081
0.262969,-0.000696535,-0.696535,-4.58087,-0.00458087
0.260963,-0.000714515,-0.714515,-4.69912,-0.00469912
0.258964,-0.000711068,-0.711068,-4.67644,-0.00467644
0.257011,-0.000722153,-0.722153,-4.74935,-0.00474935
0.254975,-0.000727165,-0.727165,-4.78231,-0.00478231
0.252978,-0.000700062,-0.700062,-4.60406,-0.00460406
0.250956,-0.000698259,-0.698259,-4.5922,-0.0045922
0.24896,-0.000710564,-0.710564,-4.67313,-0.00467313
0.246959,-0.000729022,-0.729022,-4.79452,-0.00479452
0.244944,-0.000724566,-0.724566,-4.76522,-0.00476522
0.2429693,-0.000725176,-0.725176,-4.76923,-0.00476923
0.240973,-0.000728111,-0.728111,-4.78853,-0.00478853
0.239007,-0.000719872,-0.719872,-4.73435,-0.00473435
0.236989,-0.000708204,-0.708204,-4.65761,-0.00465761
0.234971,-0.000718414,-0.718414,-4.72476,-0.00472476
0.232991,-0.000726131,-0.726131,-4.77551,-0.00477551
0.230964,-0.00072637,-0.72637,-4.77708,-0.00477708
0.228982,-0.000760103,-0.760103,-4.99893,-0.00499893
0.226995,-0.000762251,-0.762251,-5.01306,-0.00501306
0.2250265,-0.000762278,-0.762278,-5.01323,-0.00501323
0.223047,-0.000763736,-0.763736,-5.02283,-0.00502283
0.221011,-0.000793889,-0.793889,-5.22113,-0.00522113
0.21903,-0.000782512,-0.782512,-5.14631,-0.00514631
0.2170345,-0.000777871,-0.777871,-5.11579,-0.00511579
0.215021,-0.000782778,-0.782778,-5.14806,-0.00514806
0.212997,-0.000786225,-0.786225,-5.17073,-0.00517073
0.210982,-0.000807362,-0.807362,-5.30974,-0.00530974
0.209017,-0.000812109,-0.812109,-5.34096,-0.00534096
0.207024,-0.000806327,-0.806327,-5.30293,-0.00530293
0.205025,-0.00082993,-0.82993,-5.45816,-0.00545816
0.203037,-0.000835791,-0.835791,-5.49671,-0.00549671
0.201022,-0.00081972,-0.81972,-5.39101,-0.00539101
0.199061,-0.000819661,-0.819661,-5.39063,-0.00539063
0.197061,-0.000823088,-0.823088,-5.41316,-0.00541316
0.195062,-0.000834651,-0.834651,-5.48921,-0.00548921
0.193005,-0.000839106,-0.839106,-5.51851,-0.00551851
0.191011,-0.000843535,-0.843535,-5.54763,-0.00554763
0.1890365,-0.000813514,-0.813514,-5.3502,-0.0053502
0.187045,-0.000783653,-0.783653,-5.15381,-0.00515381
0.185013,-0.000810491,-0.810491,-5.33032,-0.00533032
0.183025,-0.000833749,-0.833749,-5.48328,-0.00548328
0.181049,-0.000848362,-0.848362,-5.57938,-0.00557938
0.179027,-0.000866846,-0.866846,-5.70094,-0.00570094
0.177034,-0.000877268,-0.877268,-5.76949,-0.00576949
0.1750755,-0.000885383,-0.885383,-5.82286,-0.00582286
0.17307,-0.000865706,-0.865706,-5.69344,-0.00569344
0.171049,-0.000869365,-0.869365,-5.71751,-0.00571751
0.169037,-0.000857431,-0.857431,-5.63903,-0.00563903
0.167023,-0.000863558,-0.863558,-5.67932,-0.00567932
0.165044,-0.000869657,-0.869657,-5.71943,-0.00571943
0.163047,-0.000868039,-0.868039,-5.70879,-0.00570879
0.1610744,-0.000883474,-0.883474,-5.8103,-0.0058103
0.159097,-0.000886126,-0.886126,-5.82774,-0.00582774
0.157095,-0.000903926,-0.903926,-5.94481,-0.00594481
0.155106,-0.00091018,-0.91018,-5.98593,-0.00598593
0.153082,-0.000894931,-0.894931,-5.88565,-0.00588565
0.1510625,-0.000882838,-0.882838,-5.80611,-0.00580611
0.149076,-0.000894188,-0.894188,-5.88076,-0.00588076
0.147088,-0.000906122,-0.906122,-5.95925,-0.00595925
0.145088,-0.000930971,-0.930971,-6.12267,-0.00612267
0.143067,-0.00094378,-0.94378,-6.20691,-0.00620691
0.141042,-0.000936567,-0.936567,-6.15947,-0.00615947
0.139062,-0.000935506,-0.935506,-6.1525,-0.0061525
0.137097,-0.000942322,-0.942322,-6.19732,-0.00619732
0.135104,-0.000956404,-0.956404,-6.28993,-0.00628993
0.133074,-0.000964837,-0.964837,-6.3454,-0.0063454
0.131061,-0.000973509,-0.973509,-6.40243,-0.00640243
0.129079,-0.000962371,-0.962371,-6.32918,-0.00632918
0.127076,-0.000953672,-0.953672,-6.27197,-0.00627197
0.125074,-0.000949641,-0.949641,-6.24546,-0.00624546
0.123094,-0.000950914,-0.950914,-6.25383,-0.00625383
0.121111,-0.00094691,-0.94691,-6.22749,-0.00622749
0.1190993,-0.000947202,-0.947202,-6.22941,-0.00622941
0.117104,-0.000953566,-0.953566,-6.27127,-0.00627127
0.115127,-0.000978389,-0.978389,-6.43452,-0.00643452
0.113113,-0.000998306,-0.998306,-6.56551,-0.00656551
0.111086,-0.000990827,-0.990827,-6.51632,-0.00651632
0.109086,-0.000997404,-0.997404,-6.55958,-0.00655958
0.1071015,-0.00100658,-1.00658,-6.61992,-0.00661992
0.105127,-0.00101056,-1.01056,-6.64609,-0.00664609
0.103124,-0.000992471,-0.992471,-6.52714,-0.00652714
0.101126,-0.000997934,-0.997934,-6.56306,-0.00656306
0.0991262,-0.00100626,-1.00626,-6.61783,-0.00661783
0.0970949,-0.00101003,-1.01003,-6.6426,-0.0066426
0.095104,-0.00101572,-1.01572,-6.68005,-0.00668005
0.0931254,-0.00102522,-1.02522,-6.74254,-0.00674254
0.0911395,-0.00101255,-1.01255,-6.65917,-0.00665917
0.0891385,-0.00100197,-1.00197,-6.58958,-0.00658958
0.0871261,-0.00100006,-1.00006,-6.57702,-0.00657702
0.08514677,-0.00101424,-1.01424,-6.67033,-0.00667033
0.0831502,-0.00105546,-1.05546,-6.94137,-0.00694137
0.0811408,-0.00107405,-1.07405,-7.06363,-0.00706363
0.0790997,-0.00107704,-1.07704,-7.08334,-0.00708334
0.0770794,-0.00106357,-1.06357,-6.99474,-0.00699474
0.0750882,-0.00105803,-1.05803,-6.95828,-0.00695828
0.07313963,-0.00105519,-1.05519,-6.93962,-0.00693962
0.0711478,-0.00104967,-1.04967,-6.90334,-0.00690334
0.06909503,-0.00107097,-1.07097,-7.0434,-0.0070434
0.0670781,-0.00108044,-1.08044,-7.10566,-0.00710566
0.0651251,-0.00108237,-1.08237,-7.11839,-0.00711839
0.0631655,-0.00108686,-1.08686,-7.14787,-0.00714787
0.0611796,-0.00109924,-1.09924,-7.22932,-0.00722932
0.059188,-0.00109707,-1.09707,-7.21502,-0.00721502
0.0571677,-0.00109102,-1.09102,-7.17525,-0.00717525
0.0551572,-0.00110645,-1.10645,-7.27676,-0.00727676
0.0531671,-0.00109889,-1.09889,-7.22705,-0.00722705
0.0511643,-0.00109139,-1.09139,-7.1777,-0.0071777
0.0491536,-0.00109333,-1.09333,-7.19043,-0.00719043
0.0471728,-0.00109837,-1.09837,-7.22357,-0.00722357
0.0451688,-0.00111383,-1.11383,-7.32525,-0.00732525
0.0431517,-0.00114398,-1.14398,-7.52356,-0.00752356
0.0411308,-0.00115241,-1.15241,-7.57902,-0.00757902
0.0391487,-0.00115379,-1.15379,-7.58809,-0.00758809
0.0371526,-0.00116567,-1.16567,-7.66622,-0.00766622
0.0351374,-0.00116419,-1.16419,-7.65646,-0.00765646
0.0331341,-0.00116734,-1.16734,-7.67721,-0.00767721
0.0311352,-0.00117082,-1.17082,-7.70006,-0.00770006
0.0291629,-0.00119768,-1.19768,-7.87674,-0.00787674
0.0271751,-0.0012002,-1.2002,-7.89331,-0.00789331
0.0251828,-0.00118811,-1.18811,-7.81378,-0.00781378
0.023216,-0.00120476,-1.20476,-7.92331,-0.00792331
0.0212148,-0.00120853,-1.20853,-7.94808,-0.00794808
0.01916822,-0.00121142,-1.21142,-7.96709,-0.00796709
0.0171464,-0.00122837,-1.22837,-8.07854,-0.00807854
0.01515332,-0.00124221,-1.24221,-8.16958,-0.00816958
0.0131661,-0.00124584,-1.24584,-8.19347,-0.00819347
0.0111578,-0.0012473,-1.2473,-8.20304,-0.00820304
0.009141475,-0.00123272,-1.23272,-8.10714,-0.00810714
0.00718337,-0.00124078,-1.24078,-8.16016,-0.00816016
0.00518175,-0.00125284,-1.25284,-8.23952,-0.00823952
0.003228311,-0.00126353,-1.26353,-8.30981,-0.00830981
0.00120845,-0.0012783,-1.2783,-8.40695,-0.00840695
-8.084469E-4,-0.00129493,-1.29493,-8.51631,-0.00851631
-0.00282746,-0.00129135,-1.29135,-8.49277,-0.00849277
-0.00481019,-0.00129384,-1.29384,-8.50916,-0.00850916
-0.00681435,-0.00128103,-1.28103,-8.42492,-0.00842492
-0.00881236,-0.00127806,-1.27806,-8.40539,-0.00840539
-0.0107923,-0.00127647,-1.27647,-8.39492,-0.00839492
-0.0127562,-0.00129676,-1.29676,-8.52835,-0.00852835
-0.0147881,-0.00131583,-1.31583,-8.65375,-0.00865375
-0.0167997,-0.00132519,-1.32519,-8.71532,-0.00871532
-0.0188077,-0.00133248,-1.33248,-8.76328,-0.00876328
-0.020807,-0.00132676,-1.32676,-8.72561,-0.00872561
-0.02280244,-0.00132975,-1.32975,-8.74532,-0.00874532
-0.0248051,-0.00135346,-1.35346,-8.90124,-0.00890124
-0.0267961,-0.00137473,-1.37473,-9.04112,-0.00904112
-0.0287738,-0.00137842,-1.37842,-9.06536,-0.00906536
-0.0307814,-0.00138763,-1.38763,-9.12597,-0.00912597
-0.0327534,-0.00139974,-1.39974,-9.20559,-0.00920559
-0.0347561,-0.00141939,-1.41939,-9.33483,-0.00933483
-0.0367766,-0.00143909,-1.43909,-9.46442,-0.00946442
-0.0388001,-0.00145021,-1.45021,-9.5375,-0.0095375
-0.0407985,-0.00144824,-1.44824,-9.52459,-0.00952459
-0.0427719,-0.00146394,-1.46394,-9.62784,-0.00962784
-0.0447684,-0.00148943,-1.48943,-9.79545,-0.00979545
-0.0467272,-0.00150325,-1.50325,-9.88632,-0.00988632
-0.0487337,-0.00152947,-1.52947,-10.0588,-0.0100588
-0.050765,-0.00154939,-1.54939,-10.1898,-0.0101898
-0.0527534,-0.00155753,-1.55753,-10.2433,-0.0102433
-0.0547389,-0.00156196,-1.56196,-10.2725,-0.0102725
-0.0567282,-0.00156117,-1.56117,-10.2672,-0.0102672
-0.058739,-0.00158273,-1.58273,-10.409,-0.010409
-0.0607429,-0.00163354,-1.63354,-10.7432,-0.0107432
-0.06275706,-0.00167067,-1.67067,-10.9874,-0.0109874
-0.0647727,-0.00168273,-1.68273,-11.0667,-0.0110667
-0.0667764,-0.00171347,-1.71347,-11.2689,-0.0112689
-0.0687787,-0.00171941,-1.71941,-11.308,-0.011308
-0.0707527,-0.00175049,-1.75049,-11.5124,-0.0115124
-0.0727015,-0.00179998,-1.79998,-11.8378,-0.0118378
-0.0747088,-0.00182995,-1.82995,-12.0349,-0.0120349
-0.0766924,-0.00185461,-1.85461,-12.1971,-0.0121971
-0.0787053,-0.00189052,-1.89052,-12.4333,-0.0124333
-0.0807145,-0.00193998,-1.93998,-12.7585,-0.0127585
-0.0827354,-0.00197199,-1.97199,-12.9691,-0.0129691
-0.08475551,-0.00200718,-2.00718,-13.2005,-0.0132005
-0.0867841,-0.00203452,-2.03452,-13.3803,-0.0133803
-0.0887418,-0.0020568,-2.0568,-13.5268,-0.0135268
-0.0907111,-0.002104,-2.104,-13.8373,-0.0138373
-0.0926915,-0.00218362,-2.18362,-14.3609,-0.0143609
-0.0947086,-0.00223591,-2.23591,-14.7048,-0.0147048
-0.0967045,-0.00228657,-2.28657,-15.0379,-0.0150379
-0.0987197,-0.00233067,-2.33067,-15.328,-0.015328
-0.100718,-0.00239299,-2.39299,-15.7379,-0.0157379
-0.102677,-0.00246409,-2.46409,-16.2055,-0.0162055
-0.104671,-0.00254254,-2.54254,-16.7214,-0.0167214
-0.106664,-0.00260202,-2.60202,-17.1126,-0.0171126
-0.108687,-0.00269853,-2.69853,-17.7473,-0.0177473
-0.110691,-0.00277573,-2.77573,-18.255,-0.018255
-0.112675,-0.00285375,-2.85375,-18.7681,-0.0187681
-0.114654,-0.00294575,-2.94575,-19.3732,-0.0193732
-0.116655,-0.0030439,-3.0439,-20.0186,-0.0200186
-0.1186552,-0.00314565,-3.14565,-20.6879,-0.0206879
-0.12066,-0.00322927,-3.22927,-21.2378,-0.0212378
-0.122684,-0.00331443,-3.31443,-21.7978,-0.0217978
-0.124661,-0.00342117,-3.42117,-22.4998,-0.0224998
-0.126647,-0.00354526,-3.54526,-23.3159,-0.0233159
-0.128631,-0.0036781,-3.6781,-24.1896,-0.0241896
-0.1306,-0.00377434,-3.77434,-24.8225,-0.0248225
-0.132603,-0.00387657,-3.87657,-25.4949,-0.0254949
-0.134625,-0.00399344,-3.99344,-26.2635,-0.0262635
-0.136629,-0.00411294,-4.11294,-27.0494,-0.0270494
-0.138639,-0.00422374,-4.22374,-27.7781,-0.0277781
-0.140636,-0.00433508,-4.33508,-28.5103,-0.0285103
-0.142662,-0.00443238,-4.43238,-29.1502,-0.0291502
-0.144651,-0.00453384,-4.53384,-29.8175,-0.0298175
-0.146688,-0.00464891,-4.64891,-30.5743,-0.0305743
-0.148667,-0.0047425,-4.7425,-31.1898,-0.0311898
-0.150619,-0.00481156,-4.81156,-31.6439,-0.0316439
-0.152613,-0.00487836,-4.87836,-32.0833,-0.0320833
-0.154622,-0.00492987,-4.92987,-32.422,-0.032422
-0.156639,-0.00492371,-4.92371,-32.3815,-0.0323815
-0.158664,-0.0048995,-4.8995,-32.2223,-0.0322223
-0.160701,-0.00487823,-4.87823,-32.0824,-0.0320824
-0.16269,-0.00479448,-4.79448,-31.5316,-0.0315316
-0.164689,-0.00469779,-4.69779,-30.8957,-0.0308957
-0.166668,-0.00457336,-4.57336,-30.0774,-0.0300774
-0.168692,-0.0044175,-4.4175,-29.0524,-0.0290524
-0.170714,-0.00424146,-4.24146,-27.8946,-0.0278946
-0.172717,-0.00404341,-4.04341,-26.5921,-0.0265921
-0.174736,-0.00384597,-3.84597,-25.2936,-0.0252936
-0.176731,-0.00365118,-3.65118,-24.0125,-0.0240125
-0.178745,-0.00346564,-3.46564,-22.7923,-0.0227923
-0.180783,-0.00329053,-3.29053,-21.6407,-0.0216407
-0.182747,-0.00312783,-3.12783,-20.5707,-0.0205707
-0.184739,-0.00298428,-2.98428,-19.6266,-0.0196266
-0.1867137,-0.0028393,-2.8393,-18.6731,-0.0186731
-0.188703,-0.00271274,-2.71274,-17.8408,-0.0178408
-0.190714,-0.00258465,-2.58465,-16.9983,-0.0169983
-0.192697,-0.00248544,-2.48544,-16.3459,-0.0163459
-0.194664,-0.0024098,-2.4098,-15.8484,-0.0158484
-0.195348,-0.00239307,-2.39307,-15.7384,-0.0157384
-0.195352,-0.00243412,-2.43412,-16.0084,-0.0160084