File: literature/rawdata/engstfeld_2018_polycrystalline_17743/1708030001Cu100_UHV_C01_cycle33.csv
E,<I>,I (raw),j,j
V vs. RHE,mA,\g(m)A,\g(m)A/cm\+(-2),mA/cm\+(-2)
-0.195451,-0.00241694,-2.41694,-15.8954,-0.0158954
-0.1969915,-0.00232852,-2.32852,-15.3139,-0.0153139
-0.198509,-0.00175914,-1.75914,-11.5692,-0.0115692
-0.198334,-0.000790442,-0.790442,-5.19846,-0.00519846
-0.19665,-0.000110894,-0.110894,-0.729312,-0.000729312
-0.194447,0.000124948,0.124948,0.821739,0.000821739
-0.192246,0.000201723,0.201723,1.32666,0.00132666
-0.190182,0.000273248,0.273248,1.79705,0.00179705
-0.188173,0.000381131,0.381131,2.50656,0.00250656
-0.186211,0.00050421,0.50421,3.31601,0.00331601
-0.184197,0.00062766,0.62766,4.1279,0.0041279
-0.1822035,0.000750766,0.750766,4.93753,0.00493753
-0.180241,0.000895937,0.895937,5.89226,0.00589226
-0.1783,0.00102543,1.02543,6.74392,0.00674392
-0.176317,0.00113419,1.13419,7.45918,0.00745918
-0.174303,0.00125557,1.25557,8.25747,0.00825747
-0.172289,0.00138043,1.38043,9.07861,0.00907861
-0.170278,0.00153748,1.53748,10.1115,0.0101115
-0.168293,0.00167316,1.67316,11.0038,0.0110038
-0.166338,0.00182928,1.82928,12.0305,0.0120305
-0.164345,0.00199279,1.99279,13.1059,0.0131059
-0.1623482,0.00211867,2.11867,13.9337,0.0139337
-0.160329,0.00225941,2.25941,14.8593,0.0148593
-0.15834,0.0023783,2.3783,15.6412,0.0156412
-0.156342,0.00249353,2.49353,16.399,0.016399
-0.154326,0.00259504,2.59504,17.0667,0.0170667
-0.152318,0.00268108,2.68108,17.6325,0.0176325
-0.150313,0.00274846,2.74846,18.0757,0.0180757
-0.148299,0.00282415,2.82415,18.5735,0.0185735
-0.146312,0.00289636,2.89636,19.0484,0.0190484
-0.14435,0.0029436,2.9436,19.359,0.019359
-0.142333,0.00297587,2.97587,19.5713,0.0195713
-0.140314,0.00300072,3.00072,19.7347,0.0197347
-0.1383159,0.0030313,3.0313,19.9358,0.0199358
-0.1363287,0.00304082,3.04082,19.9984,0.0199984
-0.134315,0.00301584,3.01584,19.8341,0.0198341
-0.132347,0.00299099,2.99099,19.6707,0.0196707
-0.130329,0.00298971,2.98971,19.6623,0.0196623
-0.128305,0.0029677,2.9677,19.5175,0.0195175
-0.126308,0.00294301,2.94301,19.3552,0.0193552
-0.124327,0.00288955,2.88955,19.0036,0.0190036
-0.122375,0.0028626,2.8626,18.8263,0.0188263
-0.120368,0.00281672,2.81672,18.5246,0.0185246
-0.118326,0.0027313,2.7313,17.9628,0.0179628
-0.116297,0.00266787,2.66787,17.5456,0.0175456
-0.114274,0.002613,2.613,17.1848,0.0171848
-0.112282,0.00255465,2.55465,16.8011,0.0168011
-0.110267,0.00246674,2.46674,16.2229,0.0162229
-0.108281,0.00237,2.37,15.5866,0.0155866
-0.106309,0.00228619,2.28619,15.0355,0.0150355
-0.104307,0.0022021,2.2021,14.4824,0.0144824
-0.102341,0.00214862,2.14862,14.1307,0.0141307
-0.100354,0.00207082,2.07082,13.6191,0.0136191
-0.0983165,0.00201386,2.01386,13.2444,0.0132444
-0.0963138,0.0019434,1.9434,12.781,0.012781
-0.0943086,0.00187391,1.87391,12.3241,0.0123241
-0.0923099,0.00179804,1.79804,11.8251,0.0118251
-0.0902924,0.00172492,1.72492,11.3442,0.0113442
-0.0883277,0.00165313,1.65313,10.8721,0.0108721
-0.0863287,0.00156583,1.56583,10.2979,0.0102979
-0.0843553,0.00149171,1.49171,9.81044,0.00981044
-0.0823475,0.00144535,1.44535,9.50557,0.00950557
-0.0803491,0.00139154,1.39154,9.15168,0.00915168
-0.0783402,0.00132447,1.32447,8.71059,0.00871059
-0.0763543,0.00128947,1.28947,8.48037,0.00848037
-0.0743376,0.00124353,1.24353,8.17829,0.00817829
-0.0723258,0.00121182,1.21182,7.96969,0.00796969
-0.0703508,0.00117214,1.17214,7.70877,0.00770877
-0.0684098,0.00112862,1.12862,7.42256,0.00742256
-0.0663847,0.00109088,1.09088,7.17437,0.00717437
-0.0643669,0.00105842,1.05842,6.96089,0.00696089
-0.0623458,0.00102188,1.02188,6.72055,0.00672055
-0.0603352,0.000969248,0.969248,6.3744,0.0063744
-0.0583294,0.000950117,0.950117,6.24859,0.00624859
-0.0563448,0.000934337,0.934337,6.14481,0.00614481
-0.0543917,0.000900763,0.900763,5.924,0.005924
-0.0523541,0.000875781,0.875781,5.75971,0.00575971
-0.0503484,0.000846768,0.846768,5.5689,0.0055689
-0.0483886,0.000846795,0.846795,5.56908,0.00556908
-0.04635961,0.000819586,0.819586,5.39013,0.00539013
-0.0443487,0.000778586,0.778586,5.12049,0.00512049
-0.0423566,0.000773839,0.773839,5.08927,0.00508927
-0.04034118,0.000779726,0.779726,5.12799,0.00512799
-0.0383506,0.000748141,0.748141,4.92026,0.00492026
-0.0363757,0.000724909,0.724909,4.76747,0.00476747
-0.0343781,0.000712074,0.712074,4.68306,0.00468306
-0.0323748,0.000694358,0.694358,4.56655,0.00456655
-0.0303705,0.00069351,0.69351,4.56097,0.00456097
-0.0283548,0.000665664,0.665664,4.37784,0.00437784
-0.0263812,0.000628138,0.628138,4.13104,0.00413104
-0.0243909,0.000624849,0.624849,4.10942,0.00410942
-0.0223812,0.000601034,0.601034,3.95279,0.00395279
-0.0203371,0.00057661,0.57661,3.79216,0.00379216
-0.0183541,0.000542382,0.542382,3.56706,0.00356706
-0.016377,0.000538129,0.538129,3.53909,0.00353909
-0.0144199,0.000516595,0.516595,3.39746,0.00339746
-0.01242108,0.000494,0.494,3.24886,0.00324886
-0.0104536,0.000486627,0.486627,3.20038,0.00320038
-0.0084257,0.000484479,0.484479,3.18625,0.00318625
-0.00642388,0.000474375,0.474375,3.1198,0.0031198
-0.00443287,0.000474269,0.474269,3.1191,0.0031191
-0.00241852,0.000457217,0.457217,3.00695,0.00300695
-0.000388048,0.000446715,0.446715,2.93789,0.00293789
0.00159998,0.000423085,0.423085,2.78249,0.00278249
0.00361242,0.000407306,0.407306,2.67871,0.00267871
0.00558984,0.000412345,0.412345,2.71185,0.00271185
0.00761183,0.000440164,0.440164,2.89481,0.00289481
0.00962023,0.00044637,0.44637,2.93562,0.00293562
0.0116265,0.000433667,0.433667,2.85208,0.00285208
0.0136029,0.000419187,0.419187,2.75685,0.00275685
0.0155966,0.00043616,0.43616,2.86847,0.00286847
0.01761077,0.000406988,0.406988,2.67662,0.00267662
0.0196007,0.00038548,0.38548,2.53517,0.00253517
0.0215928,0.000390254,0.390254,2.56656,0.00256656
0.0235628,0.000394825,0.394825,2.59662,0.00259662
0.025592,0.000401737,0.401737,2.64208,0.00264208
0.02757661,0.000392163,0.392163,2.57912,0.00257912
0.0295795,0.00038906,0.38906,2.55871,0.00255871
0.0315809,0.000384764,0.384764,2.53046,0.00253046
0.0335621,0.000413671,0.413671,2.72057,0.00272057
0.035541,0.000424279,0.424279,2.79033,0.00279033
0.0375255,0.000430034,0.430034,2.82818,0.00282818
0.0395354,0.000435391,0.435391,2.86341,0.00286341
0.0415344,0.000442763,0.442763,2.9119,0.0029119
0.0435551,0.000454512,0.454512,2.98916,0.00298916
0.0455621,0.000455678,0.455678,2.99684,0.00299684
0.0475713,0.00046199,0.46199,3.03835,0.00303835
0.04952709,0.000446741,0.446741,2.93806,0.00293806
0.0515578,0.000428124,0.428124,2.81562,0.00281562
0.0535594,0.000418577,0.418577,2.75283,0.00275283
0.0555177,0.000417225,0.417225,2.74394,0.00274394
0.0575009,0.000398024,0.398024,2.61767,0.00261767
0.059515,0.000391235,0.391235,2.57302,0.00257302
0.0615453,0.000371133,0.371133,2.44081,0.00244081
0.0635314,0.000351243,0.351243,2.31,0.00231
0.0655295,0.000354648,0.354648,2.3324,0.0023324
0.0675094,0.000367712,0.367712,2.41831,0.00241831
0.06952922,0.000350712,0.350712,2.30651,0.00230651
0.0715665,0.000351694,0.351694,2.31297,0.00231297
0.0735624,0.000341802,0.341802,2.24791,0.00224791
0.0755506,0.000339601,0.339601,2.23343,0.00223343
0.0775418,0.000351879,0.351879,2.31419,0.00231419
0.0795676,0.000343075,0.343075,2.25628,0.00225628
0.0815478,0.000348564,0.348564,2.29239,0.00229239
0.0835314,0.000326367,0.326367,2.1464,0.0021464
0.0855275,0.000342863,0.342863,2.25489,0.00225489
0.0875246,0.000347291,0.347291,2.28401,0.00228401
0.0895273,0.000342279,0.342279,2.25105,0.00225105
0.0915209,0.000337081,0.337081,2.21687,0.00221687
0.0935562,0.000323238,0.323238,2.12582,0.00212582
0.0955218,0.000301704,0.301704,1.9842,0.0019842
0.0974986,0.000307538,0.307538,2.02257,0.00202257
0.099522,0.000322416,0.322416,2.12041,0.00212041
0.10155,0.000309633,0.309633,2.03635,0.00203635
0.103536,0.000320506,0.320506,2.10786,0.00210786
0.105529,0.00033496,0.33496,2.20291,0.00220291
0.107513,0.000330091,0.330091,2.17089,0.00217089
0.10953,0.000340317,0.340317,2.23814,0.00223814
0.111496,0.000329947,0.329947,2.16995,0.00216995
0.113491,0.000320957,0.320957,2.11082,0.00211082
0.115497,0.000307989,0.307989,2.02553,0.00202553
0.1174871,0.000314433,0.314433,2.06792,0.00206792
0.119478,0.000346947,0.346947,2.28175,0.00228175
0.121481,0.000360392,0.360392,2.37017,0.00237017
0.12349,0.000362063,0.362063,2.38116,0.00238116
0.125468,0.000318756,0.318756,2.09635,0.00209635
0.127448,0.000281469,0.281469,1.85112,0.00185112
0.129403,0.000280116,0.280116,1.84223,0.00184223
0.131421,0.00028603,0.28603,1.88112,0.00188112
0.133442,0.000295074,0.295074,1.9406,0.0019406
0.135463,0.000292952,0.292952,1.92664,0.00192664
0.137488,0.000299184,0.299184,1.96763,0.00196763
0.139477,0.000306265,0.306265,2.0142,0.0020142
0.141465,0.000307246,0.307246,2.02065,0.00202065
0.143484,0.000301889,0.301889,1.98542,0.00198542
0.14547,0.000292209,0.292209,1.92176,0.00192176
0.147459,0.000277146,0.277146,1.82269,0.00182269
0.149439,0.000278737,0.278737,1.83316,0.00183316
0.151411,0.000280594,0.280594,1.84537,0.00184537
0.153452,0.000278392,0.278392,1.83089,0.00183089
0.155477,0.000274441,0.274441,1.8049,0.0018049
0.157487,0.000256991,0.256991,1.69014,0.00169014
0.159474,0.000263992,0.263992,1.73618,0.00173618
0.1614757,0.000257309,0.257309,1.69223,0.00169223
0.163485,0.000251872,0.251872,1.65648,0.00165648
0.165488,0.000261632,0.261632,1.72066,0.00172066
0.167509,0.000247152,0.247152,1.62543,0.00162543
0.169508,0.000248219,0.248219,1.63245,0.00163245
0.171483,0.000241874,0.241874,1.59072,0.00159072
0.173474,0.000256938,0.256938,1.68979,0.00168979
0.175441,0.000259828,0.259828,1.7088,0.0017088
0.177465,0.000263303,0.263303,1.73165,0.00173165
0.179478,0.00027529,0.27529,1.81048,0.00181048
0.181486,0.000260598,0.260598,1.71386,0.00171386
0.183478,0.000268076,0.268076,1.76304,0.00176304
0.185449,0.000245375,0.245375,1.61375,0.00161375
0.1874553,0.000237472,0.237472,1.56177,0.00156177
0.189449,0.000249963,0.249963,1.64392,0.00164392
0.191385,0.000248849,0.248849,1.63659,0.00163659
0.193404,0.000240893,0.240893,1.58427,0.00158427
0.195402,0.000250334,0.250334,1.64636,0.00164636
0.197427,0.000262613,0.262613,1.72711,0.00172711
0.199426,0.000268262,0.268262,1.76426,0.00176426
0.201452,0.00026972,0.26972,1.77386,0.00177386
0.203477,0.000242723,0.242723,1.59631,0.00159631
0.205445,0.000220632,0.220632,1.45102,0.00145102
0.207462,0.000219465,0.219465,1.44335,0.00144335
0.209452,0.000240575,0.240575,1.58218,0.00158218
0.211427,0.000241364,0.241364,1.58737,0.00158737
0.213422,0.000257495,0.257495,1.69345,0.00169345
0.215434,0.000245428,0.245428,1.6141,0.0016141
0.217456,0.000226016,0.226016,1.48643,0.00148643
0.219464,0.000235404,0.235404,1.54817,0.00154817
0.221445,0.000233255,0.233255,1.53404,0.00153404
0.223444,0.000228217,0.228217,1.5009,0.0015009
0.225418,0.000219173,0.219173,1.44143,0.00144143
0.227403,0.000221109,0.221109,1.45416,0.00145416
0.229385,0.000238135,0.238135,1.56613,0.00156613
0.231397,0.000233255,0.233255,1.53404,0.00153404
0.2334086,0.000237446,0.237446,1.5616,0.0015616
0.235409,0.00022705,0.22705,1.49323,0.00149323
0.237401,0.000231505,0.231505,1.52253,0.00152253
0.239407,0.000239779,0.239779,1.57695,0.00157695
0.2414,0.000256938,0.256938,1.68979,0.00168979
0.243393,0.000266962,0.266962,1.75572,0.00175572
0.245361,0.000260359,0.260359,1.71229,0.00171229
0.247374,0.000243572,0.243572,1.60189,0.00160189
0.249399,0.000249751,0.249751,1.64252,0.00164252
0.251449,0.000262242,0.262242,1.72467,0.00172467
0.253425,0.00023809,0.23809,1.56583,0.00156583
0.255445,0.000258211,0.258211,1.69816,0.00169816
0.257457,0.000284412,0.284412,1.87048,0.00187048
0.2594406,0.000284174,0.284174,1.86891,0.00186891
0.261416,0.000279718,0.279718,1.83961,0.00183961
0.263394,0.000278605,0.278605,1.83229,0.00183229
0.265423,0.000288735,0.288735,1.89891,0.00189891
0.267408,0.000287754,0.287754,1.89246,0.00189246
0.269397,0.000284784,0.284784,1.87292,0.00187292
0.271422,0.000286561,0.286561,1.88461,0.00188461
0.273446,0.000308758,0.308758,2.03059,0.00203059
0.275411,0.000328833,0.328833,2.16262,0.00216262
0.27738,0.000302446,0.302446,1.98908,0.00198908
0.279381,0.000266326,0.266326,1.75153,0.00175153
0.281384,0.000264602,0.264602,1.7402,0.0017402
0.2833946,0.000266299,0.266299,1.75136,0.00175136
0.2853854,0.000288815,0.288815,1.89943,0.00189943
0.287351,0.000311702,0.311702,2.04995,0.00204995
0.28934,0.000311914,0.311914,2.05135,0.00205135
0.291362,0.000321647,0.321647,2.11536,0.00211536
0.293378,0.000329364,0.329364,2.16611,0.00216611
0.2954067,0.000331434,0.331434,2.17973,0.00217973
0.297387,0.000328489,0.328489,2.16036,0.00216036
0.299412,0.000321302,0.321302,2.11309,0.00211309
0.301387,0.000342332,0.342332,2.2514,0.0022514
0.303342,0.000350315,0.350315,2.3039,0.0023039
0.30534,0.000346363,0.346363,2.27791,0.00227791
0.307313,0.000335013,0.335013,2.20326,0.00220326
0.309333,0.00033724,0.33724,2.21791,0.00221791
0.311322,0.000349864,0.349864,2.30093,0.00230093
0.313334,0.000353974,0.353974,2.32797,0.00232797
0.315328,0.000351137,0.351137,2.3093,0.0023093
0.317303,0.000351137,0.351137,2.3093,0.0023093
0.319293,0.000362275,0.362275,2.38256,0.00238256
0.321285,0.000372777,0.372777,2.45162,0.00245162
0.323321,0.000385188,0.385188,2.53325,0.00253325
0.325346,0.000390095,0.390095,2.56552,0.00256552
0.327331,0.000401339,0.401339,2.63947,0.00263947
0.329319,0.000390333,0.390333,2.56709,0.00256709
0.331336,0.000408446,0.408446,2.68621,0.00268621
0.333329,0.000422714,0.422714,2.78004,0.00278004
0.335322,0.000433083,0.433083,2.84824,0.00284824
0.337318,0.000443656,0.443656,2.91777,0.00291777
0.33932,0.00046085,0.46085,3.03085,0.00303085
0.34131,0.000475754,0.475754,3.12887,0.00312887
0.343329,0.000494053,0.494053,3.24921,0.00324921
0.345317,0.000506544,0.506544,3.33136,0.00333136
0.345966,0.000506411,0.506411,3.33049,0.00333049
0.347486,0.000488669,0.488669,3.21381,0.00321381
0.348968,0.000136829,0.136829,0.899876,0.000899876
0.348854,-0.000455972,-0.455972,-2.99877,-0.00299877
0.34725,-0.000821285,-0.821285,-5.4013,-0.0054013
0.345044,-0.000877348,-0.877348,-5.77001,-0.00577001
0.342839,-0.000812321,-0.812321,-5.34235,-0.00534235
0.340807,-0.000766229,-0.766229,-5.03922,-0.00503922
0.338816,-0.00075517,-0.75517,-4.96649,-0.00496649
0.3368459,-0.000770234,-0.770234,-5.06556,-0.00506556
0.334871,-0.000788108,-0.788108,-5.18311,-0.00518311
0.332892,-0.000788665,-0.788665,-5.18677,-0.00518677
0.330883,-0.000785854,-0.785854,-5.16829,-0.00516829
0.3288838,-0.000778534,-0.778534,-5.12015,-0.00512015
0.326913,-0.000759599,-0.759599,-4.99562,-0.00499562
0.324912,-0.000761176,-0.761176,-5.00599,-0.00500599
0.322889,-0.000753234,-0.753234,-4.95376,-0.00495376
0.320902,-0.000755462,-0.755462,-4.96841,-0.00496841
0.318867,-0.00076005,-0.76005,-4.99858,-0.00499858
0.316876,-0.000750874,-0.750874,-4.93824,-0.00493824
0.314907,-0.000744218,-0.744218,-4.89446,-0.00489446
0.3128849,-0.000748328,-0.748328,-4.92149,-0.00492149
0.310883,-0.000757743,-0.757743,-4.98341,-0.00498341
0.308854,-0.000757796,-0.757796,-4.98376,-0.00498376
0.306892,-0.000752147,-0.752147,-4.94661,-0.00494661
0.304924,-0.000756496,-0.756496,-4.97521,-0.00497521
0.302919,-0.000762755,-0.762755,-5.01637,-0.00501637
0.300923,-0.00076904,-0.76904,-5.05771,-0.00505771
0.298919,-0.00076127,-0.76127,-5.00661,-0.00500661
0.296922,-0.000748514,-0.748514,-4.92271,-0.00492271
0.2949703,-0.000754295,-0.754295,-4.96074,-0.00496074
0.292963,-0.000754322,-0.754322,-4.96091,-0.00496091
0.290943,-0.000742441,-0.742441,-4.88277,-0.00488277
0.288949,-0.000736394,-0.736394,-4.84301,-0.00484301
0.286978,-0.000733344,-0.733344,-4.82295,-0.00482295
0.284984,-0.000740956,-0.740956,-4.87301,-0.00487301
0.282977,-0.000752173,-0.752173,-4.94678,-0.00494678
0.281003,-0.000767051,-0.767051,-5.04463,-0.00504463
0.278979,-0.000764877,-0.764877,-5.03033,-0.00503033
0.276959,-0.000753075,-0.753075,-4.95271,-0.00495271
0.274955,-0.000751431,-0.751431,-4.9419,-0.0049419
0.272966,-0.000737163,-0.737163,-4.84807,-0.00484807
0.270994,-0.000736819,-0.736819,-4.8458,-0.0048458
0.268992,-0.000764824,-0.764824,-5.02998,-0.00502998
0.266985,-0.000765831,-0.765831,-5.03661,-0.00503661
0.264966,-0.00075106,-0.75106,-4.93946,-0.00493946
0.262958,-0.000752651,-0.752651,-4.94992,-0.00494992
0.260976,-0.0007474,-0.7474,-4.91539,-0.00491539
0.258962,-0.000750556,-0.750556,-4.93614,-0.00493614
0.256996,-0.000770976,-0.770976,-5.07044,-0.00507044
0.254997,-0.000797045,-0.797045,-5.24189,-0.00524189
0.2529653,-0.000789699,-0.789699,-5.19358,-0.00519358
0.250987,-0.000775962,-0.775962,-5.10323,-0.00510323
0.248956,-0.000779569,-0.779569,-5.12695,-0.00512695
0.246936,-0.000778269,-0.778269,-5.1184,-0.0051184
0.244941,-0.000795216,-0.795216,-5.22985,-0.00522985
0.242938,-0.000794924,-0.794924,-5.22794,-0.00522794
0.240963,-0.000788781,-0.788781,-5.18754,-0.00518754
0.239006,-0.000781611,-0.781611,-5.14038,-0.00514038
0.23703,-0.000792325,-0.792325,-5.21084,-0.00521084
0.2350242,-0.000781876,-0.781876,-5.14213,-0.00514213
0.233026,-0.000791529,-0.791529,-5.20561,-0.00520561
0.231007,-0.000780736,-0.780736,-5.13463,-0.00513463
0.228973,-0.000788532,-0.788532,-5.1859,-0.0051859
0.226998,-0.000790999,-0.790999,-5.20212,-0.00520212
0.22498,-0.000793651,-0.793651,-5.21956,-0.00521956
0.223015,-0.000794181,-0.794181,-5.22305,-0.00522305
0.221051,-0.000789805,-0.789805,-5.19427,-0.00519427
0.219066,-0.0008028,-0.8028,-5.27974,-0.00527974
0.217067,-0.000820648,-0.820648,-5.39712,-0.00539712
0.215047,-0.00082391,-0.82391,-5.41857,-0.00541857
0.2130232,-0.000824175,-0.824175,-5.42031,-0.00542031
0.211026,-0.0008294,-0.8294,-5.45467,-0.00545467
0.209028,-0.000821603,-0.821603,-5.4034,-0.0054034
0.20704,-0.000800387,-0.800387,-5.26387,-0.00526387
0.205052,-0.000812904,-0.812904,-5.34619,-0.00534619
0.203054,-0.000817572,-0.817572,-5.37688,-0.00537688
0.201022,-0.000814628,-0.814628,-5.35752,-0.00535752
0.199064,-0.00079434,-0.79434,-5.2241,-0.0052241
0.197082,-0.000799273,-0.799273,-5.25654,-0.00525654
0.195094,-0.000825289,-0.825289,-5.42764,-0.00542764
0.193057,-0.000844516,-0.844516,-5.55409,-0.00555409
0.19107,-0.000865944,-0.865944,-5.69501,-0.00569501
0.1890588,-0.000864618,-0.864618,-5.68629,-0.00568629
0.18705,-0.000867827,-0.867827,-5.7074,-0.0057074
0.185048,-0.000865308,-0.865308,-5.69083,-0.00569083
0.183033,-0.000864698,-0.864698,-5.68682,-0.00568682
0.18103,-0.00085889,-0.85889,-5.64862,-0.00564862
0.1790331,-0.000874643,-0.874643,-5.75222,-0.00575222
0.177066,-0.00088236,-0.88236,-5.80297,-0.00580297
0.1750354,-0.000878276,-0.878276,-5.77612,-0.00577612
0.1730482,-0.000892729,-0.892729,-5.87117,-0.00587117
0.17106,-0.000907103,-0.907103,-5.9657,-0.0059657
0.169077,-0.000899333,-0.899333,-5.9146,-0.0059146
0.167083,-0.00090896,-0.90896,-5.97791,-0.00597791
0.165078,-0.000913548,-0.913548,-6.00808,-0.00600808
0.163096,-0.000907369,-0.907369,-5.96745,-0.00596745
0.161073,-0.000905751,-0.905751,-5.95681,-0.00595681
0.159086,-0.000916704,-0.916704,-6.02884,-0.00602884
0.157094,-0.000926046,-0.926046,-6.09028,-0.00609028
0.155094,-0.000931687,-0.931687,-6.12738,-0.00612738
0.153075,-0.000915961,-0.915961,-6.02396,-0.00602396
0.151024,-0.000889892,-0.889892,-5.85251,-0.00585251
0.149028,-0.000882599,-0.882599,-5.80454,-0.00580454
0.147089,-0.000917207,-0.917207,-6.03215,-0.00603215
0.145128,-0.000924713,-0.924713,-6.08151,-0.00608151
0.143131,-0.000949164,-0.949164,-6.24232,-0.00624232
0.141089,-0.000959666,-0.959666,-6.31139,-0.00631139
0.139072,-0.000967198,-0.967198,-6.36092,-0.00636092
0.137065,-0.000975525,-0.975525,-6.41569,-0.00641569
0.1350863,-0.000979264,-0.979264,-6.44028,-0.00644028
0.133096,-0.000987273,-0.987273,-6.49295,-0.00649295
0.131074,-0.000990137,-0.990137,-6.51179,-0.00651179
0.129081,-0.000980564,-0.980564,-6.44882,-0.00644882
0.127103,-0.000969425,-0.969425,-6.37557,-0.00637557
0.125088,-0.000975127,-0.975127,-6.41307,-0.00641307
0.123098,-0.000994142,-0.994142,-6.53812,-0.00653812
0.12111,-0.00101228,-1.01228,-6.65742,-0.00665742
0.119108,-0.0010118,-1.0118,-6.65428,-0.00665428
0.117107,-0.00100753,-1.00753,-6.6262,-0.0066262
0.11507,-0.00100326,-1.00326,-6.59812,-0.00659812
0.113054,-0.00100401,-1.00401,-6.60301,-0.00660301
0.11107,-0.00100806,-1.00806,-6.62969,-0.00662969
0.109078,-0.00102005,-1.02005,-6.70853,-0.00670853
0.10708,-0.00102891,-1.02891,-6.76678,-0.00676678
0.105089,-0.00103626,-1.03626,-6.81509,-0.00681509
0.103131,-0.00103535,-1.03535,-6.80916,-0.00680916
0.1011567,-0.00103535,-1.03535,-6.80916,-0.00680916
0.0991381,-0.00103835,-1.03835,-6.82887,-0.00682887
0.0971304,-0.00103628,-1.03628,-6.81527,-0.00681527
0.0951282,-0.00102898,-1.02898,-6.76724,-0.00676724
0.093152,-0.00103238,-1.03238,-6.78963,-0.00678963
0.0911565,-0.00105379,-1.05379,-6.93038,-0.00693038
0.0891131,-0.00105768,-1.05768,-6.95602,-0.00695602
0.0871221,-0.00105389,-1.05389,-6.93108,-0.00693108
0.0851067,-0.00105296,-1.05296,-6.92497,-0.00692497
0.083122,-0.00106065,-1.06065,-6.97555,-0.00697555
0.0811646,-0.00103965,-1.03965,-6.83742,-0.00683742
0.07918565,-0.00103785,-1.03785,-6.82556,-0.00682556
0.07717894,-0.00106087,-1.06087,-6.97695,-0.00697695
0.07517074,-0.00109086,-1.09086,-7.17421,-0.00717421
0.0731632,-0.00109919,-1.09919,-7.22897,-0.00722897
0.0711484,-0.00110043,-1.10043,-7.23717,-0.00723717
0.069136,-0.00107985,-1.07985,-7.10183,-0.00710183
0.06716641,-0.00107779,-1.07779,-7.08822,-0.00708822
0.0651873,-0.00110006,-1.10006,-7.23473,-0.00723473
0.063181,-0.00110863,-1.10863,-7.29106,-0.00729106
0.06120168,-0.00111791,-1.11791,-7.35211,-0.00735211
0.0591986,-0.00110441,-1.10441,-7.26333,-0.00726333
0.0571779,-0.00110942,-1.10942,-7.2963,-0.0072963
0.0551712,-0.00111465,-1.11465,-7.33065,-0.00733065
0.0531787,-0.00111755,-1.11755,-7.34977,-0.00734977
0.0511718,-0.0011116,-1.1116,-7.3106,-0.0073106
0.0491678,-0.00113064,-1.13064,-7.43583,-0.00743583
0.0471702,-0.00113401,-1.13401,-7.45798,-0.00745798
0.0451656,-0.00112287,-1.12287,-7.38472,-0.00738472
0.0431984,-0.00113677,-1.13677,-7.47611,-0.00747611
0.0411745,-0.0011491,-1.1491,-7.55722,-0.00755722
0.0391748,-0.00116196,-1.16196,-7.64181,-0.00764181
0.03715919,-0.00116851,-1.16851,-7.68489,-0.00768489
0.03518049,-0.00117755,-1.17755,-7.74436,-0.00774436
0.0331929,-0.00118426,-1.18426,-7.78849,-0.00778849
0.0312174,-0.00120532,-1.20532,-7.92697,-0.00792697
0.0291793,-0.00118946,-1.18946,-7.82267,-0.00782267
0.0271866,-0.00121349,-1.21349,-7.98069,-0.00798069
0.0252038,-0.00122004,-1.22004,-8.02377,-0.00802377
0.0232328,-0.00123014,-1.23014,-8.09022,-0.00809022
0.0212068,-0.00123224,-1.23224,-8.104,-0.008104
0.0191852,-0.00120476,-1.20476,-7.92331,-0.00792331
0.0172112,-0.00120373,-1.20373,-7.91651,-0.00791651
0.01521847,-0.00123375,-1.23375,-8.11394,-0.00811394
0.0132553,-0.00127398,-1.27398,-8.37853,-0.00837853
0.0112719,-0.00128549,-1.28549,-8.45423,-0.00845423
0.00925437,-0.00128074,-1.28074,-8.423,-0.008423
0.00720883,-0.00128843,-1.28843,-8.47358,-0.00847358
0.00520849,-0.00127674,-1.27674,-8.39666,-0.00839666
0.00321706,-0.00125361,-1.25361,-8.24458,-0.00824458
0.00122818,-0.00125788,-1.25788,-8.27266,-0.00827266
-0.000780434,-0.0012978,-1.2978,-8.53515,-0.00853515
-0.00276295,-0.0013244,-1.3244,-8.71008,-0.00871008
-0.004788545,-0.00133964,-1.33964,-8.81037,-0.00881037
-0.00679398,-0.00135129,-1.35129,-8.88694,-0.00888694
-0.00880026,-0.00134943,-1.34943,-8.87473,-0.00887473
-0.010786,-0.00134752,-1.34752,-8.86217,-0.00886217
-0.0128018,-0.00134307,-1.34307,-8.83287,-0.00883287
-0.0148329,-0.00134535,-1.34535,-8.84787,-0.00884787
-0.0168061,-0.00135195,-1.35195,-8.8913,-0.0088913
-0.0187837,-0.00136277,-1.36277,-8.96246,-0.00896246
-0.02079276,-0.00135805,-1.35805,-8.93141,-0.00893141
-0.02279098,-0.00137277,-1.37277,-9.02821,-0.00902821
-0.0247954,-0.00138704,-1.38704,-9.12205,-0.00912205
-0.02678784,-0.00140761,-1.40761,-9.25739,-0.00925739
-0.0287718,-0.00141976,-1.41976,-9.33727,-0.00933727
-0.0307785,-0.00142007,-1.42007,-9.33929,-0.00933929
-0.0327596,-0.00142636,-1.42636,-9.3807,-0.0093807
-0.0347217,-0.00144769,-1.44769,-9.52093,-0.00952093
-0.036717,-0.00146402,-1.46402,-9.62837,-0.00962837
-0.038743,-0.00145999,-1.45999,-9.60186,-0.00960186
-0.0407881,-0.00147927,-1.47927,-9.72865,-0.00972865
-0.0428141,-0.00149579,-1.49579,-9.83731,-0.00983731
-0.0448009,-0.00150367,-1.50367,-9.88911,-0.00988911
-0.04679253,-0.00152581,-1.52581,-10.0347,-0.0100347
-0.04877292,-0.0015457,-1.5457,-10.1656,-0.0101656
-0.0507643,-0.00157246,-1.57246,-10.3415,-0.0103415
-0.0527539,-0.00157191,-1.57191,-10.3379,-0.0103379
-0.0547604,-0.00158989,-1.58989,-10.4561,-0.0104561
-0.0567501,-0.00160317,-1.60317,-10.5435,-0.0105435
-0.0587657,-0.00163707,-1.63707,-10.7664,-0.0107664
-0.0607811,-0.00166717,-1.66717,-10.9644,-0.0109644
-0.062767,-0.00167711,-1.67711,-11.0298,-0.0110298
-0.0647544,-0.00168488,-1.68488,-11.0809,-0.0110809
-0.066724,-0.00172482,-1.72482,-11.3435,-0.0113435
-0.0687311,-0.00177303,-1.77303,-11.6606,-0.0116606
-0.0707472,-0.0017912,-1.7912,-11.7801,-0.0117801
-0.0727645,-0.00180642,-1.80642,-11.8802,-0.0118802
-0.0747483,-0.00183326,-1.83326,-12.0567,-0.0120567
-0.0767295,-0.00189333,-1.89333,-12.4518,-0.0124518
-0.0787358,-0.00194236,-1.94236,-12.7742,-0.0127742
-0.0807364,-0.00197233,-1.97233,-12.9713,-0.0129713
-0.082748,-0.00199458,-1.99458,-13.1177,-0.0131177
-0.0847341,-0.00201614,-2.01614,-13.2595,-0.0132595
-0.08674439,-0.00207862,-2.07862,-13.6704,-0.0136704
-0.0887579,-0.00215338,-2.15338,-14.162,-0.014162
-0.0907045,-0.0022026,-2.2026,-14.4858,-0.0144858
-0.0926945,-0.0022448,-2.2448,-14.7632,-0.0147632
-0.0946768,-0.00230908,-2.30908,-15.186,-0.015186
-0.0966846,-0.00236252,-2.36252,-15.5375,-0.0155375
-0.0986959,-0.00240286,-2.40286,-15.8027,-0.0158027
-0.100669,-0.00245966,-2.45966,-16.1763,-0.0161763
-0.102672,-0.00252331,-2.52331,-16.5949,-0.0165949
-0.104666,-0.00260542,-2.60542,-17.1349,-0.0171349
-0.106693,-0.00266058,-2.66058,-17.4977,-0.0174977
-0.108689,-0.00272057,-2.72057,-17.8922,-0.0178922
-0.110692,-0.00279442,-2.79442,-18.3779,-0.0183779
-0.112674,-0.00288348,-2.88348,-18.9636,-0.0189636
-0.11462,-0.00298679,-2.98679,-19.6431,-0.0196431
-0.116615,-0.00308723,-3.08723,-20.3036,-0.0203036
-0.118635,-0.0031896,-3.1896,-20.9769,-0.0209769
-0.1206339,-0.00328284,-3.28284,-21.5901,-0.0215901
-0.122658,-0.00338478,-3.38478,-22.2605,-0.0222605
-0.124606,-0.00347726,-3.47726,-22.8687,-0.0228687
-0.1265963,-0.00357973,-3.57973,-23.5427,-0.0235427
-0.128626,-0.00369316,-3.69316,-24.2886,-0.0242886
-0.13063,-0.00379927,-3.79927,-24.9864,-0.0249864
-0.132612,-0.00391553,-3.91553,-25.7511,-0.0257511
-0.134608,-0.00401119,-4.01119,-26.3802,-0.0263802
-0.136625,-0.00412758,-4.12758,-27.1457,-0.0271457
-0.138635,-0.00422831,-4.22831,-27.8081,-0.0278081
-0.140631,-0.00434043,-4.34043,-28.5455,-0.0285455
-0.142658,-0.00446858,-4.46858,-29.3883,-0.0293883
-0.144645,-0.00458192,-4.58192,-30.1337,-0.0301337
-0.146626,-0.00466843,-4.66843,-30.7026,-0.0307026
-0.148597,-0.0047494,-4.7494,-31.2351,-0.0312351
-0.150611,-0.00479435,-4.79435,-31.5308,-0.0315308
-0.152656,-0.00485831,-4.85831,-31.9514,-0.0319514
-0.154667,-0.0049301,-4.9301,-32.4236,-0.0324236
-0.156684,-0.00495949,-4.95949,-32.6168,-0.0326168
-0.1586775,-0.00494153,-4.94153,-32.4987,-0.0324987
-0.160655,-0.00489077,-4.89077,-32.1649,-0.0321649
-0.162643,-0.00481827,-4.81827,-31.6881,-0.0316881
-0.164688,-0.00472306,-4.72306,-31.0619,-0.0310619
-0.166706,-0.00459235,-4.59235,-30.2023,-0.0302023
-0.168655,-0.0044157,-4.4157,-29.0405,-0.0290405
-0.1706505,-0.00423189,-4.23189,-27.8316,-0.0278316
-0.172634,-0.00405484,-4.05484,-26.6673,-0.0266673
-0.1746794,-0.00386777,-3.86777,-25.437,-0.025437
-0.176699,-0.00368677,-3.68677,-24.2466,-0.0242466
-0.178697,-0.00352059,-3.52059,-23.1537,-0.0231537
-0.180726,-0.00332199,-3.32199,-21.8475,-0.0218475
-0.18273,-0.00315597,-3.15597,-20.7557,-0.0207557
-0.184727,-0.00301396,-3.01396,-19.8217,-0.0198217
-0.1867069,-0.00290225,-2.90225,-19.0871,-0.0190871
-0.188697,-0.0027871,-2.7871,-18.3298,-0.0183298
-0.190699,-0.00266631,-2.66631,-17.5354,-0.0175354
-0.192706,-0.00255543,-2.55543,-16.8061,-0.0168061
-0.194713,-0.00246409,-2.46409,-16.2055,-0.0162055
-0.195329,-0.00243412,-2.43412,-16.0084,-0.0160084
-0.195356,-0.00246086,-2.46086,-16.1842,-0.0161842