File: literature/rawdata/engstfeld_2018_polycrystalline_17743/1708030001Cu100_UHV_C01_cycle32.csv
E,<I>,I (raw),j,j
V vs. RHE,mA,\g(m)A,\g(m)A/cm\+(-2),mA/cm\+(-2)
-0.1954094,-0.00249379,-2.49379,-16.4008,-0.0164008
-0.196959,-0.00242932,-2.42932,-15.9768,-0.0159768
-0.198485,-0.00186013,-1.86013,-12.2334,-0.0122334
-0.198342,-0.000854594,-0.854594,-5.62036,-0.00562036
-0.196679,-0.000184858,-0.184858,-1.21575,-0.00121575
-0.19443,5.88601e-05,0.0588601,0.387103,0.000387103
-0.192265,0.000153404,0.153404,1.00888,0.00100888
-0.190214,0.000231929,0.231929,1.52532,0.00152532
-0.188226,0.000333448,0.333448,2.19297,0.00219297
-0.186261,0.00045056,0.45056,2.96318,0.00296318
-0.184266,0.00057653,0.57653,3.79164,0.00379164
-0.182254,0.000680409,0.680409,4.47481,0.00447481
-0.18026,0.000798847,0.798847,5.25374,0.00525374
-0.17826,0.000923968,0.923968,6.07662,0.00607662
-0.176257,0.0010527,1.0527,6.92321,0.00692321
-0.17427,0.00118278,1.18278,7.77871,0.00777871
-0.172274,0.00134694,1.34694,8.85832,0.00885832
-0.170259,0.00149181,1.49181,9.81114,0.00981114
-0.168271,0.00163102,1.63102,10.7266,0.0107266
-0.166281,0.00176478,1.76478,11.6064,0.0116064
-0.164275,0.00190295,1.90295,12.515,0.012515
-0.1622909,0.00204457,2.04457,13.4464,0.0134464
-0.160354,0.00218009,2.18009,14.3377,0.0143377
-0.15838,0.00231778,2.31778,15.2432,0.0152432
-0.1564,0.00244616,2.44616,16.0875,0.0160875
-0.154401,0.00256325,2.56325,16.8576,0.0168576
-0.152377,0.00265429,2.65429,17.4563,0.0174563
-0.150337,0.00270136,2.70136,17.7659,0.0177659
-0.148303,0.00275477,2.75477,18.1172,0.0181172
-0.146288,0.002808,2.808,18.4672,0.0184672
-0.144315,0.00286552,2.86552,18.8455,0.0188455
-0.142351,0.00293089,2.93089,19.2755,0.0192755
-0.140355,0.00297911,2.97911,19.5925,0.0195925
-0.138338,0.00299685,2.99685,19.7092,0.0197092
-0.136309,0.00298895,2.98895,19.6573,0.0196573
-0.134302,0.00298584,2.98584,19.6368,0.0196368
-0.132314,0.00298574,2.98574,19.6361,0.0196361
-0.1303,0.00296802,2.96802,19.5196,0.0195196
-0.128309,0.0029572,2.9572,19.4485,0.0194485
-0.1263113,0.0029267,2.9267,19.2479,0.0192479
-0.124328,0.0028678,2.8678,18.8605,0.0188605
-0.1223121,0.00280821,2.80821,18.4686,0.0184686
-0.120316,0.00274,2.74,18.02,0.01802
-0.118328,0.00270123,2.70123,17.765,0.017765
-0.116306,0.00264721,2.64721,17.4098,0.0174098
-0.114309,0.00258393,2.58393,16.9936,0.0169936
-0.1123,0.00249594,2.49594,16.4149,0.0164149
-0.110289,0.00243404,2.43404,16.0078,0.0160078
-0.108286,0.00238015,2.38015,15.6534,0.0156534
-0.106275,0.00229407,2.29407,15.0873,0.0150873
-0.104299,0.0022205,2.2205,14.6035,0.0146035
-0.102334,0.00213681,2.13681,14.0531,0.0140531
-0.100329,0.00206852,2.06852,13.6039,0.0136039
-0.09830758,0.00199233,1.99233,13.1028,0.0131028
-0.0962752,0.00189486,1.89486,12.4619,0.0124619
-0.094288,0.00181294,1.81294,11.9231,0.0119231
-0.092314,0.00175144,1.75144,11.5186,0.0115186
-0.090327,0.00169909,1.69909,11.1743,0.0111743
-0.0883386,0.00163303,1.63303,10.7399,0.0107399
-0.0863741,0.00157259,1.57259,10.3424,0.0103424
-0.0843591,0.00150794,1.50794,9.91718,0.00991718
-0.0823428,0.00143331,1.43331,9.42638,0.00942638
-0.0803484,0.00136285,1.36285,8.96297,0.00896297
-0.078343,0.00131325,1.31325,8.63682,0.00863682
-0.0763552,0.0012814,1.2814,8.42735,0.00842735
-0.0743593,0.00125966,1.25966,8.28433,0.00828433
-0.0723547,0.0012329,1.2329,8.10835,0.00810835
-0.0703701,0.00118378,1.18378,7.78534,0.00778534
-0.0683818,0.00113737,1.13737,7.48011,0.00748011
-0.0663632,0.00108608,1.08608,7.1428,0.0071428
-0.064347,0.00101249,1.01249,6.6588,0.0066588
-0.0623693,0.000958418,0.958418,6.30318,0.00630318
-0.0603614,0.000950294,0.950294,6.24975,0.00624975
-0.0583387,0.000941286,0.941286,6.19051,0.00619051
-0.0563554,0.00092609,0.92609,6.09057,0.00609057
-0.0543939,0.000891852,0.891852,5.8654,0.0058654
-0.0523632,0.000861514,0.861514,5.66587,0.00566587
-0.0503406,0.000835789,0.835789,5.49669,0.00549669
-0.0483627,0.000813062,0.813062,5.34722,0.00534722
-0.0464029,0.000798025,0.798025,5.24833,0.00524833
-0.0444087,0.000778851,0.778851,5.12223,0.00512223
-0.0423734,0.00076697,0.76697,5.04409,0.00504409
-0.04036304,0.000736392,0.736392,4.843,0.004843
-0.0383776,0.000706849,0.706849,4.6487,0.0046487
-0.0363972,0.000709289,0.709289,4.66475,0.00466475
-0.03439682,0.000711464,0.711464,4.67905,0.00467905
-0.0323683,0.000685527,0.685527,4.50847,0.00450847
-0.0303431,0.000674627,0.674627,4.43679,0.00443679
-0.0283275,0.000654711,0.654711,4.3058,0.0043058
-0.0263564,0.000601591,0.601591,3.95646,0.00395646
-0.0243887,0.000573003,0.573003,3.76844,0.00376844
-0.0223941,0.00056205,0.56205,3.69641,0.00369641
-0.0203713,0.000553245,0.553245,3.6385,0.0036385
-0.018377,0.000540914,0.540914,3.5574,0.0035574
-0.01638123,0.000512299,0.512299,3.36921,0.00336921
-0.01438492,0.000493602,0.493602,3.24625,0.00324625
-0.0123937,0.000487529,0.487529,3.20631,0.00320631
-0.01040843,0.000485858,0.485858,3.19532,0.00319532
-0.00841997,0.000486495,0.486495,3.19951,0.00319951
-0.00639883,0.000469548,0.469548,3.08806,0.00308806
-0.00439191,0.000441835,0.441835,2.90579,0.00290579
-0.00240324,0.000433349,0.433349,2.84998,0.00284998
-0.000372981,0.000423271,0.423271,2.78371,0.00278371
0.00161802,0.000423404,0.423404,2.78458,0.00278458
0.00360563,0.000421468,0.421468,2.77185,0.00277185
0.00557753,0.000413565,0.413565,2.71987,0.00271987
0.00760058,0.000404495,0.404495,2.66022,0.00266022
0.00960856,0.000385109,0.385109,2.53273,0.00253273
0.0116074,0.000376172,0.376172,2.47395,0.00247395
0.0135889,0.000385348,0.385348,2.5343,0.0025343
0.0155886,0.000409613,0.409613,2.69388,0.00269388
0.0175575,0.000418683,0.418683,2.75353,0.00275353
0.0195687,0.000413353,0.413353,2.71848,0.00271848
0.0215686,0.000402639,0.402639,2.64801,0.00264801
0.02356204,0.000391183,0.391183,2.57267,0.00257267
0.0255565,0.000380839,0.380839,2.50465,0.00250465
0.0275811,0.000371451,0.371451,2.4429,0.0024429
0.0295731,0.000401021,0.401021,2.63737,0.00263737
0.0315994,0.000392349,0.392349,2.58034,0.00258034
0.0335628,0.000412637,0.412637,2.71377,0.00271377
0.035585,0.000412,0.412,2.70958,0.00270958
0.0376017,0.000421627,0.421627,2.77289,0.00277289
0.0396194,0.000428177,0.428177,2.81597,0.00281597
0.0416295,0.00044645,0.44645,2.93614,0.00293614
0.0436088,0.000451382,0.451382,2.96858,0.00296858
0.0455748,0.000474561,0.474561,3.12102,0.00312102
0.0475838,0.000494053,0.494053,3.24921,0.00324921
0.049609,0.000474667,0.474667,3.12172,0.00312172
0.05158006,0.000436955,0.436955,2.8737,0.0028737
0.0535594,0.000411814,0.411814,2.70836,0.00270836
0.055589,0.000381184,0.381184,2.50691,0.00250691
0.0576167,0.000381953,0.381953,2.51197,0.00251197
0.0596177,0.000395133,0.395133,2.59865,0.00259865
0.0616439,0.000378505,0.378505,2.4893,0.0024893
0.0636161,0.00035469,0.35469,2.33267,0.00233267
0.065603,0.000335985,0.335985,2.20966,0.00220966
0.0675607,0.000324564,0.324564,2.13454,0.00213454
0.0695937,0.000314247,0.314247,2.0667,0.0020667
0.0715992,0.000303348,0.303348,1.99501,0.00199501
0.0735634,0.000303162,0.303162,1.99379,0.00199379
0.0755555,0.000300643,0.300643,1.97722,0.00197722
0.0775507,0.000316316,0.316316,2.0803,0.0020803
0.0795611,0.000341961,0.341961,2.24896,0.00224896
0.0815158,0.000343605,0.343605,2.25977,0.00225977
0.0835386,0.000318013,0.318013,2.09146,0.00209146
0.0855597,0.000295074,0.295074,1.9406,0.0019406
0.0875,0.000276695,0.276695,1.81973,0.00181973
0.08950568,0.00028908,0.28908,1.90118,0.00190118
0.0915117,0.000320692,0.320692,2.10908,0.00210908
0.0935195,0.000306398,0.306398,2.01507,0.00201507
0.095533,0.000303931,0.303931,1.99885,0.00199885
0.0975541,0.000290724,0.290724,1.91199,0.00191199
0.0995492,0.000292528,0.292528,1.92385,0.00192385
0.101555,0.000288205,0.288205,1.89542,0.00189542
0.103546,0.000279931,0.279931,1.84101,0.00184101
0.105549,0.000275926,0.275926,1.81467,0.00181467
0.107514,0.000285094,0.285094,1.87497,0.00187497
0.109512,0.000272319,0.272319,1.79095,0.00179095
0.111491,0.000272903,0.272903,1.79479,0.00179479
0.1134705,0.000280381,0.280381,1.84397,0.00184397
0.11547,0.000284333,0.284333,1.86996,0.00186996
0.117519,0.000275634,0.275634,1.81275,0.00181275
0.119529,0.000289584,0.289584,1.90449,0.00190449
0.121524,0.000321832,0.321832,2.11658,0.00211658
0.123525,0.000318172,0.318172,2.09251,0.00209251
0.125508,0.000319074,0.319074,2.09844,0.00209844
0.127516,0.000302446,0.302446,1.98908,0.00198908
0.129548,0.000291785,0.291785,1.91897,0.00191897
0.131539,0.000270728,0.270728,1.78048,0.00178048
0.133528,0.000268501,0.268501,1.76583,0.00176583
0.135523,0.000264947,0.264947,1.74246,0.00174246
0.137504,0.000250069,0.250069,1.64462,0.00164462
0.139493,0.000273858,0.273858,1.80107,0.00180107
0.141507,0.000314247,0.314247,2.0667,0.0020667
0.143489,0.000316581,0.316581,2.08204,0.00208204
0.145478,0.000302101,0.302101,1.98681,0.00198681
0.1475113,0.000276934,0.276934,1.8213,0.0018213
0.149514,0.000256964,0.256964,1.68996,0.00168996
0.151511,0.000256513,0.256513,1.687,0.001687
0.153494,0.000277942,0.277942,1.82793,0.00182793
0.155477,0.000293217,0.293217,1.92839,0.00192839
0.157495,0.000284094,0.284094,1.86839,0.00186839
0.15952,0.000267121,0.267121,1.75676,0.00175676
0.161506,0.000256301,0.256301,1.6856,0.0016856
0.163499,0.000258556,0.258556,1.70043,0.00170043
0.165491,0.000248213,0.248213,1.63241,0.00163241
0.167491,0.000244155,0.244155,1.60572,0.00160572
0.169464,0.000254187,0.254187,1.6717,0.0016717
0.171452,0.000259775,0.259775,1.70845,0.00170845
0.173485,0.000258688,0.258688,1.7013,0.0017013
0.1754889,0.000269535,0.269535,1.77264,0.00177264
0.177487,0.000281575,0.281575,1.85182,0.00185182
0.1794809,0.000261048,0.261048,1.71682,0.00171682
0.181477,0.000248796,0.248796,1.63625,0.00163625
0.183492,0.000222329,0.222329,1.46218,0.00146218
0.185444,0.000219836,0.219836,1.44579,0.00144579
0.187451,0.000221109,0.221109,1.45416,0.00145416
0.189452,0.000212252,0.212252,1.39591,0.00139591
0.191439,0.000206895,0.206895,1.36067,0.00136067
0.1934385,0.000216309,0.216309,1.42259,0.00142259
0.195432,0.000241821,0.241821,1.59038,0.00159038
0.197439,0.000241397,0.241397,1.58758,0.00158758
0.199443,0.00022697,0.22697,1.4927,0.0014927
0.201423,0.00023612,0.23612,1.55288,0.00155288
0.203419,0.000248849,0.248849,1.63659,0.00163659
0.205422,0.000245932,0.245932,1.61741,0.00161741
0.20744,0.00024153,0.24153,1.58846,0.00158846
0.20948,0.000226413,0.226413,1.48904,0.00148904
0.211493,0.000218299,0.218299,1.43568,0.00143568
0.213453,0.000219836,0.219836,1.44579,0.00144579
0.215448,0.000204906,0.204906,1.34759,0.00134759
0.217452,0.000207319,0.207319,1.36346,0.00136346
0.2194493,0.000218908,0.218908,1.43968,0.00143968
0.22144,0.00022339,0.22339,1.46916,0.00146916
0.223418,0.000247232,0.247232,1.62596,0.00162596
0.225416,0.00024397,0.24397,1.6045,0.0016045
0.227427,0.000231107,0.231107,1.51991,0.00151991
0.229425,0.000222966,0.222966,1.46637,0.00146637
0.231432,0.00020472,0.20472,1.34637,0.00134637
0.233441,0.000201378,0.201378,1.3244,0.0013244
0.235459,0.000209202,0.209202,1.37585,0.00137585
0.237437,0.000237525,0.237525,1.56212,0.00156212
0.239423,0.000229994,0.229994,1.51259,0.00151259
0.2414127,0.000243015,0.243015,1.59822,0.00159822
0.243404,0.000249883,0.249883,1.6434,0.0016434
0.245432,0.000234131,0.234131,1.5398,0.0015398
0.24744,0.000231293,0.231293,1.52113,0.00152113
0.249413,0.00023962,0.23962,1.5759,0.0015759
0.251395,0.000244129,0.244129,1.60555,0.00160555
0.253377,0.000240469,0.240469,1.58148,0.00158148
0.255385,0.00025898,0.25898,1.70322,0.00170322
0.2573908,0.0002589,0.2589,1.7027,0.0017027
0.2594181,0.000259059,0.259059,1.70374,0.00170374
0.261449,0.000248531,0.248531,1.6345,0.0016345
0.263406,0.0002589,0.2589,1.7027,0.0017027
0.265409,0.000278154,0.278154,1.82932,0.00182932
0.267427,0.000281257,0.281257,1.84973,0.00184973
0.269396,0.000285951,0.285951,1.8806,0.0018806
0.271379,0.000268421,0.268421,1.76531,0.00176531
0.27339,0.000254684,0.254684,1.67497,0.00167497
0.275359,0.000262587,0.262587,1.72694,0.00172694
0.27739,0.00028855,0.28855,1.89769,0.00189769
0.279385,0.000312418,0.312418,2.05466,0.00205466
0.281361,0.000298521,0.298521,1.96327,0.00196327
0.28336,0.000298654,0.298654,1.96414,0.00196414
0.2853809,0.000306451,0.306451,2.01542,0.00201542
0.287373,0.000308705,0.308705,2.03024,0.00203024
0.289395,0.000303878,0.303878,1.9985,0.0019985
0.2913985,0.000298707,0.298707,1.96449,0.00196449
0.2933549,0.000290565,0.290565,1.91095,0.00191095
0.295365,0.000297534,0.297534,1.95678,0.00195678
0.297351,0.000320427,0.320427,2.10733,0.00210733
0.299356,0.000337002,0.337002,2.21634,0.00221634
0.301373,0.00032154,0.32154,2.11466,0.00211466
0.303366,0.00031011,0.31011,2.03949,0.00203949
0.3053818,0.000310747,0.310747,2.04367,0.00204367
0.307358,0.000307193,0.307193,2.0203,0.0020203
0.3093366,0.00032223,0.32223,2.11919,0.00211919
0.311328,0.000337903,0.337903,2.22227,0.00222227
0.313345,0.00035774,0.35774,2.35273,0.00235273
0.315364,0.000386541,0.386541,2.54214,0.00254214
0.317326,0.00039516,0.39516,2.59883,0.00259883
0.31934,0.000396194,0.396194,2.60563,0.00260563
0.3213529,0.000375959,0.375959,2.47255,0.00247255
0.323338,0.000353603,0.353603,2.32552,0.00232552
0.325334,0.000373864,0.373864,2.45878,0.00245878
0.327339,0.000385294,0.385294,2.53395,0.00253395
0.329352,0.000402453,0.402453,2.64679,0.00264679
0.331349,0.000415978,0.415978,2.73574,0.00273574
0.333344,0.000415368,0.415368,2.73173,0.00273173
0.335346,0.000435311,0.435311,2.86289,0.00286289
0.337333,0.00043953,0.43953,2.89063,0.00289063
0.3393445,0.000456023,0.456023,2.99911,0.00299911
0.341357,0.000466393,0.466393,3.0673,0.0030673
0.343353,0.000489969,0.489969,3.22235,0.00322235
0.345309,0.000525346,0.525346,3.45502,0.00345502
0.345939,0.000502592,0.502592,3.30538,0.00330538
0.347453,0.00050718,0.50718,3.33555,0.00333555
0.348995,0.000135132,0.135132,0.888713,0.000888713
0.348885,-0.000470823,-0.470823,-3.09644,-0.00309644
0.347261,-0.000855363,-0.855363,-5.62542,-0.00562542
0.345072,-0.000910233,-0.910233,-5.98628,-0.00598628
0.342866,-0.000854037,-0.854037,-5.6167,-0.0056167
0.3408086,-0.000809457,-0.809457,-5.32351,-0.00532351
0.338811,-0.000791582,-0.791582,-5.20596,-0.00520596
0.336837,-0.000783308,-0.783308,-5.15154,-0.00515154
0.334858,-0.000784369,-0.784369,-5.15852,-0.00515852
0.332887,-0.000794844,-0.794844,-5.22741,-0.00522741
0.330862,-0.000810783,-0.810783,-5.33224,-0.00533224
0.3288371,-0.000822213,-0.822213,-5.40741,-0.00540741
0.32689,-0.000811419,-0.811419,-5.33642,-0.00533642
0.324879,-0.000793752,-0.793752,-5.22023,-0.00522023
0.322891,-0.000789593,-0.789593,-5.19288,-0.00519288
0.320902,-0.00079084,-0.79084,-5.20108,-0.00520108
0.318932,-0.000781929,-0.781929,-5.14247,-0.00514247
0.316916,-0.000774424,-0.774424,-5.09312,-0.00509312
0.314902,-0.00078108,-0.78108,-5.13689,-0.00513689
0.312914,-0.000788983,-0.788983,-5.18887,-0.00518887
0.310903,-0.000782009,-0.782009,-5.143,-0.005143
0.308918,-0.000770605,-0.770605,-5.068,-0.005068
0.306946,-0.000773602,-0.773602,-5.08771,-0.00508771
0.304926,-0.000765752,-0.765752,-5.03608,-0.00503608
0.30294,-0.00075403,-0.75403,-4.95899,-0.00495899
0.300971,-0.000772833,-0.772833,-5.08265,-0.00508265
0.298967,-0.000753977,-0.753977,-4.95864,-0.00495864
0.296957,-0.000741194,-0.741194,-4.87458,-0.00487458
0.294959,-0.000747453,-0.747453,-4.91574,-0.00491574
0.292951,-0.000746578,-0.746578,-4.90998,-0.00490998
0.290956,-0.000751484,-0.751484,-4.94225,-0.00494225
0.288973,-0.000771904,-0.771904,-5.07655,-0.00507655
0.286938,-0.000786384,-0.786384,-5.17178,-0.00517178
0.2849535,-0.000774291,-0.774291,-5.09224,-0.00509224
0.282977,-0.000769015,-0.769015,-5.05754,-0.00505754
0.281001,-0.000774318,-0.774318,-5.09242,-0.00509242
0.278986,-0.000758591,-0.758591,-4.98899,-0.00498899
0.277024,-0.000748991,-0.748991,-4.92585,-0.00492585
0.275035,-0.000770844,-0.770844,-5.06957,-0.00506957
0.272996,-0.000775989,-0.775989,-5.10341,-0.00510341
0.270923,-0.000786066,-0.786066,-5.16968,-0.00516968
0.268934,-0.000780258,-0.780258,-5.13149,-0.00513149
0.266976,-0.000787021,-0.787021,-5.17596,-0.00517596
0.264971,-0.000786809,-0.786809,-5.17457,-0.00517457
0.26297,-0.000785987,-0.785987,-5.16916,-0.00516916
0.261005,-0.000780868,-0.780868,-5.1355,-0.0051355
0.259026,-0.000778694,-0.778694,-5.1212,-0.0051212
0.25703,-0.000783016,-0.783016,-5.14963,-0.00514963
0.255021,-0.000757398,-0.757398,-4.98114,-0.00498114
0.253,-0.000757212,-0.757212,-4.97992,-0.00497992
0.250974,-0.000771666,-0.771666,-5.07498,-0.00507498
0.249002,-0.000786066,-0.786066,-5.16968,-0.00516968
0.247013,-0.000798955,-0.798955,-5.25445,-0.00525445
0.24499,-0.000815795,-0.815795,-5.3652,-0.0053652
0.242999,-0.000806195,-0.806195,-5.30206,-0.00530206
0.240982,-0.000791549,-0.791549,-5.20574,-0.00520574
0.238985,-0.000797788,-0.797788,-5.24677,-0.00524677
0.23698,-0.000792192,-0.792192,-5.20997,-0.00520997
0.235004,-0.000799432,-0.799432,-5.25759,-0.00525759
0.233007,-0.000795056,-0.795056,-5.22881,-0.00522881
0.231024,-0.000809032,-0.809032,-5.32072,-0.00532072
0.229006,-0.000829745,-0.829745,-5.45694,-0.00545694
0.227008,-0.00082216,-0.82216,-5.40706,-0.00540706
0.225006,-0.00081797,-0.81797,-5.3795,-0.0053795
0.223051,-0.000833749,-0.833749,-5.48328,-0.00548328
0.221029,-0.000830514,-0.830514,-5.462,-0.005462
0.21905,-0.000802296,-0.802296,-5.27642,-0.00527642
0.217079,-0.000782353,-0.782353,-5.14526,-0.00514526
0.215038,-0.000773416,-0.773416,-5.08649,-0.00508649
0.213027,-0.00081004,-0.81004,-5.32735,-0.00532735
0.211018,-0.000838098,-0.838098,-5.51188,-0.00551188
0.20902,-0.000837435,-0.837435,-5.50752,-0.00550752
0.2070419,-0.000843774,-0.843774,-5.5492,-0.0055492
0.2050454,-0.000835128,-0.835128,-5.49235,-0.00549235
0.203072,-0.000821205,-0.821205,-5.40078,-0.00540078
0.201074,-0.000819083,-0.819083,-5.38683,-0.00538683
0.199067,-0.000837732,-0.837732,-5.50947,-0.00550947
0.197065,-0.000856291,-0.856291,-5.63153,-0.00563153
0.195069,-0.000874272,-0.874272,-5.74978,-0.00574978
0.1930438,-0.00087154,-0.87154,-5.73181,-0.00573181
0.19105,-0.000887081,-0.887081,-5.83402,-0.00583402
0.189045,-0.000877348,-0.877348,-5.77001,-0.00577001
0.187043,-0.00087101,-0.87101,-5.72833,-0.00572833
0.185057,-0.0008704,-0.8704,-5.72431,-0.00572431
0.1830546,-0.000888433,-0.888433,-5.84292,-0.00584292
0.181032,-0.00090164,-0.90164,-5.92977,-0.00592977
0.179053,-0.000905751,-0.905751,-5.95681,-0.00595681
0.177093,-0.00090339,-0.90339,-5.94128,-0.00594128
0.1750685,-0.000908085,-0.908085,-5.97216,-0.00597216
0.173061,-0.000922511,-0.922511,-6.06704,-0.00606704
0.171095,-0.000904,-0.904,-5.9453,-0.0059453
0.169079,-0.000904398,-0.904398,-5.94791,-0.00594791
0.167071,-0.000920814,-0.920814,-6.05587,-0.00605587
0.165073,-0.000922644,-0.922644,-6.06791,-0.00606791
0.1630896,-0.000920204,-0.920204,-6.05186,-0.00605186
0.161084,-0.000916597,-0.916597,-6.02814,-0.00602814
0.159074,-0.000915616,-0.915616,-6.02169,-0.00602169
0.157063,-0.00092253,-0.92253,-6.06716,-0.00606716
0.15507,-0.000922008,-0.922008,-6.06372,-0.00606372
0.1531,-0.000946883,-0.946883,-6.22732,-0.00622732
0.151101,-0.000950782,-0.950782,-6.25296,-0.00625296
0.149116,-0.000964811,-0.964811,-6.34522,-0.00634522
0.147071,-0.000985443,-0.985443,-6.48092,-0.00648092
0.145096,-0.00097465,-0.97465,-6.40993,-0.00640993
0.143075,-0.00098547,-0.98547,-6.48109,-0.00648109
0.141072,-0.000996184,-0.996184,-6.55155,-0.00655155
0.139081,-0.000989687,-0.989687,-6.50882,-0.00650882
0.137084,-0.000983985,-0.983985,-6.47132,-0.00647132
0.135126,-0.000977222,-0.977222,-6.42685,-0.00642685
0.133116,-0.000978124,-0.978124,-6.43278,-0.00643278
0.131131,-0.00101027,-1.01027,-6.64417,-0.00664417
0.129086,-0.0010217,-1.0217,-6.71934,-0.00671934
0.1270856,-0.00102647,-1.02647,-6.75073,-0.00675073
0.125091,-0.00102398,-1.02398,-6.73434,-0.00673434
0.123069,-0.00102727,-1.02727,-6.75597,-0.00675597
0.121068,-0.00102443,-1.02443,-6.7373,-0.0067373
0.119097,-0.00101536,-1.01536,-6.67765,-0.00667765
0.117083,-0.00102201,-1.02201,-6.72143,-0.00672143
0.115095,-0.00101207,-1.01207,-6.656,-0.006656
0.113091,-0.00102708,-1.02708,-6.75474,-0.00675474
0.111121,-0.00103546,-1.03546,-6.80986,-0.00680986
0.109081,-0.00103069,-1.03069,-6.77846,-0.00677846
0.107085,-0.00102695,-1.02695,-6.75387,-0.00675387
0.105133,-0.00102231,-1.02231,-6.72335,-0.00672335
0.103141,-0.00103254,-1.03254,-6.79067,-0.00679067
0.101141,-0.00104914,-1.04914,-6.89986,-0.00689986
0.0991441,-0.00106182,-1.06182,-6.98323,-0.00698323
0.09714967,-0.0010693,-1.0693,-7.03241,-0.00703241
0.0951517,-0.00105569,-1.05569,-6.9429,-0.0069429
0.0931679,-0.00105615,-1.05615,-6.9459,-0.0069459
0.0911762,-0.00107169,-1.07169,-7.04811,-0.00704811
0.0891543,-0.00106654,-1.06654,-7.01427,-0.00701427
0.0871403,-0.00105996,-1.05996,-6.97102,-0.00697102
0.0851404,-0.00105962,-1.05962,-6.96875,-0.00696875
0.0831696,-0.00106211,-1.06211,-6.98514,-0.00698514
0.08118429,-0.00106423,-1.06423,-6.9991,-0.0069991
0.0791447,-0.00106636,-1.06636,-7.01305,-0.00701305
0.0771514,-0.00107333,-1.07333,-7.05892,-0.00705892
0.0751682,-0.00106028,-1.06028,-6.97311,-0.00697311
0.0731821,-0.00105222,-1.05222,-6.92009,-0.00692009
0.0712189,-0.00103875,-1.03875,-6.83149,-0.00683149
0.0691661,-0.00106293,-1.06293,-6.99055,-0.00699055
0.0671581,-0.00109492,-1.09492,-7.20089,-0.00720089
0.06513191,-0.00111335,-1.11335,-7.32211,-0.00732211
0.0631524,-0.00113518,-1.13518,-7.46565,-0.00746565
0.0611628,-0.00115061,-1.15061,-7.56716,-0.00756716
0.0591697,-0.00112677,-1.12677,-7.41036,-0.00741036
0.0571558,-0.00112425,-1.12425,-7.39379,-0.00739379
0.05517371,-0.00113305,-1.13305,-7.4517,-0.0074517
0.0532128,-0.00111667,-1.11667,-7.34393,-0.00734393
0.0512127,-0.00110004,-1.10004,-7.23455,-0.00723455
0.049199,-0.00111651,-1.11651,-7.34286,-0.00734286
0.0471929,-0.00113822,-1.13822,-7.48571,-0.00748571
0.0451803,-0.00114401,-1.14401,-7.52373,-0.00752373
0.04314493,-0.00114517,-1.14517,-7.5314,-0.0075314
0.0411134,-0.0011675,-1.1675,-7.67826,-0.00767826
0.0391485,-0.00118806,-1.18806,-7.81343,-0.00781343
0.0371465,-0.00118795,-1.18795,-7.81273,-0.00781273
0.03515524,-0.00118593,-1.18593,-7.79948,-0.00779948
0.0331468,-0.00119312,-1.19312,-7.84674,-0.00784674
0.0311868,-0.00121763,-1.21763,-8.0079,-0.0080079
0.02917756,-0.00123282,-1.23282,-8.10784,-0.00810784
0.0271825,-0.0012372,-1.2372,-8.13662,-0.00813662
0.0251648,-0.00124651,-1.24651,-8.19783,-0.00819783
0.0232018,-0.00126987,-1.26987,-8.35149,-0.00835149
0.0212197,-0.00127666,-1.27666,-8.39614,-0.00839614
0.01920642,-0.00127568,-1.27568,-8.38969,-0.00838969
0.0171842,-0.00126279,-1.26279,-8.30492,-0.00830492
0.0151975,-0.00126292,-1.26292,-8.3058,-0.0083058
0.0132226,-0.00126266,-1.26266,-8.30405,-0.00830405
0.0112517,-0.00128385,-1.28385,-8.44344,-0.00844344
0.00926711,-0.00130307,-1.30307,-8.56986,-0.00856986
0.007227506,-0.00132254,-1.32254,-8.69788,-0.00869788
0.0052104,-0.00131238,-1.31238,-8.63108,-0.00863108
0.00321367,-0.00130472,-1.30472,-8.58067,-0.00858067
0.00121757,-0.0013228,-1.3228,-8.69962,-0.00869962
-0.000788074,-0.00132636,-1.32636,-8.72299,-0.00872299
-0.0027916,-0.00133272,-1.33272,-8.76485,-0.00876485
-0.004813374,-0.00133728,-1.33728,-8.79485,-0.00879485
-0.0067666,-0.00134352,-1.34352,-8.83584,-0.00883584
-0.00876079,-0.00136126,-1.36126,-8.95252,-0.00895252
-0.0107957,-0.00136582,-1.36582,-8.98252,-0.00898252
-0.0128103,-0.00136789,-1.36789,-8.99612,-0.00899612
-0.014797,-0.00137168,-1.37168,-9.02106,-0.00902106
-0.0167679,-0.00137163,-1.37163,-9.02071,-0.00902071
-0.0187375,-0.00137041,-1.37041,-9.01269,-0.00901269
-0.0207518,-0.00140475,-1.40475,-9.23855,-0.00923855
-0.0227999,-0.00140708,-1.40708,-9.2539,-0.0092539
-0.02482952,-0.00141698,-1.41698,-9.31896,-0.00931896
-0.0268265,-0.00143445,-1.43445,-9.4339,-0.0094339
-0.0288245,-0.00143745,-1.43745,-9.45361,-0.00945361
-0.0307747,-0.00143024,-1.43024,-9.40618,-0.00940618
-0.03277104,-0.00146819,-1.46819,-9.65575,-0.00965575
-0.0347769,-0.00148293,-1.48293,-9.75272,-0.00975272
-0.0367363,-0.00148296,-1.48296,-9.7529,-0.0097529
-0.03877249,-0.00149502,-1.49502,-9.83225,-0.00983225
-0.0407979,-0.00151202,-1.51202,-9.94405,-0.00994405
-0.0427929,-0.00152512,-1.52512,-10.0302,-0.0100302
-0.0447663,-0.00154976,-1.54976,-10.1922,-0.0101922
-0.0467382,-0.00156684,-1.56684,-10.3046,-0.0103046
-0.0487358,-0.00157371,-1.57371,-10.3497,-0.0103497
-0.0507306,-0.00159914,-1.59914,-10.517,-0.010517
-0.0526949,-0.00162198,-1.62198,-10.6672,-0.0106672
-0.0547122,-0.00164664,-1.64664,-10.8294,-0.0108294
-0.0566922,-0.00166823,-1.66823,-10.9713,-0.0109713
-0.0586889,-0.00168279,-1.68279,-11.0671,-0.0110671
-0.0607147,-0.00168995,-1.68995,-11.1142,-0.0111142
-0.0627445,-0.00169963,-1.69963,-11.1778,-0.0111778
-0.0647226,-0.00174044,-1.74044,-11.4463,-0.0114463
-0.0667274,-0.00177813,-1.77813,-11.6941,-0.0116941
-0.06872689,-0.00179375,-1.79375,-11.7968,-0.0117968
-0.07071089,-0.00183045,-1.83045,-12.0382,-0.0120382
-0.0726827,-0.00185444,-1.85444,-12.196,-0.012196
-0.0746657,-0.0018836,-1.8836,-12.3877,-0.0123877
-0.0766712,-0.0019242,-1.9242,-12.6548,-0.0126548
-0.0787161,-0.00196496,-1.96496,-12.9228,-0.0129228
-0.0807455,-0.00201036,-2.01036,-13.2214,-0.0132214
-0.0827431,-0.00206253,-2.06253,-13.5645,-0.0135645
-0.0847258,-0.00209469,-2.09469,-13.7761,-0.0137761
-0.0867062,-0.00213442,-2.13442,-14.0373,-0.0140373
-0.08870887,-0.002172,-2.172,-14.2845,-0.0142845
-0.0906706,-0.00222239,-2.22239,-14.6159,-0.0146159
-0.0926525,-0.00226917,-2.26917,-14.9235,-0.0149235
-0.0946235,-0.00231314,-2.31314,-15.2127,-0.0152127
-0.0966387,-0.00239864,-2.39864,-15.775,-0.015775
-0.09862908,-0.00245417,-2.45417,-16.1402,-0.0161402
-0.100643,-0.00250854,-2.50854,-16.4978,-0.0164978
-0.102678,-0.00257142,-2.57142,-16.9113,-0.0169113
-0.104676,-0.0026501,-2.6501,-17.4288,-0.0174288
-0.106669,-0.00271911,-2.71911,-17.8826,-0.0178826
-0.108671,-0.00278909,-2.78909,-18.3429,-0.0183429
-0.110669,-0.00287046,-2.87046,-18.878,-0.018878
-0.112674,-0.00295543,-2.95543,-19.4368,-0.0194368
-0.114656,-0.00305674,-3.05674,-20.1031,-0.0201031
-0.11662,-0.0031634,-3.1634,-20.8046,-0.0208046
-0.118609,-0.00326088,-3.26088,-21.4457,-0.0214457
-0.120638,-0.00334087,-3.34087,-21.9717,-0.0219717
-0.122667,-0.00343992,-3.43992,-22.6232,-0.0226232
-0.1246643,-0.00354086,-3.54086,-23.287,-0.023287
-0.126651,-0.00363704,-3.63704,-23.9196,-0.0239196
-0.1286149,-0.00372925,-3.72925,-24.526,-0.024526
-0.130616,-0.00384904,-3.84904,-25.3138,-0.0253138
-0.132631,-0.00396525,-3.96525,-26.0781,-0.0260781
-0.13464,-0.004082,-4.082,-26.8459,-0.0268459
-0.136653,-0.00419791,-4.19791,-27.6082,-0.0276082
-0.138644,-0.00429644,-4.29644,-28.2562,-0.0282562
-0.140628,-0.00441875,-4.41875,-29.0605,-0.0290605
-0.1426332,-0.00452053,-4.52053,-29.7299,-0.0297299
-0.1446168,-0.00459911,-4.59911,-30.2467,-0.0302467
-0.146634,-0.00467389,-4.67389,-30.7386,-0.0307386
-0.148623,-0.00474693,-4.74693,-31.2189,-0.0312189
-0.150645,-0.00482071,-4.82071,-31.7041,-0.0317041
-0.152591,-0.004899,-4.899,-32.219,-0.032219
-0.1545735,-0.00495002,-4.95002,-32.5546,-0.0325546
-0.156607,-0.0049601,-4.9601,-32.6208,-0.0326208
-0.158628,-0.0049545,-4.9545,-32.584,-0.032584
-0.160659,-0.00490812,-4.90812,-32.279,-0.032279
-0.16271,-0.00482954,-4.82954,-31.7622,-0.0317622
-0.164702,-0.00469758,-4.69758,-30.8943,-0.0308943
-0.166681,-0.00457757,-4.57757,-30.1051,-0.0301051
-0.168675,-0.00442954,-4.42954,-29.1315,-0.0291315
-0.170695,-0.00421979,-4.21979,-27.7521,-0.0277521
-0.1727,-0.00403052,-4.03052,-26.5073,-0.0265073
-0.174675,-0.00386106,-3.86106,-25.3928,-0.0253928
-0.176679,-0.00368168,-3.68168,-24.2131,-0.0242131
-0.178687,-0.00351179,-3.51179,-23.0958,-0.0230958
-0.1806957,-0.00335405,-3.35405,-22.0584,-0.0220584
-0.182691,-0.00318315,-3.18315,-20.9345,-0.0209345
-0.184695,-0.00304034,-3.04034,-19.9953,-0.0199953
-0.186692,-0.00291748,-2.91748,-19.1872,-0.0191872
-0.18868,-0.0028015,-2.8015,-18.4245,-0.0184245
-0.1906537,-0.00268975,-2.68975,-17.6895,-0.0176895
-0.192636,-0.00257699,-2.57699,-16.9479,-0.0169479
-0.19469,-0.00246101,-2.46101,-16.1852,-0.0161852
-0.195306,-0.00241885,-2.41885,-15.9079,-0.0159079
-0.195333,-0.00241503,-2.41503,-15.8828,-0.0158828