File: literature/rawdata/engstfeld_2018_polycrystalline_17743/1708030001Cu100_UHV_C01_cycle30.csv
E,<I>,I (raw),j,j
V vs. RHE,mA,\g(m)A,\g(m)A/cm\+(-2),mA/cm\+(-2)
-0.195394,-0.00263175,-2.63175,-17.3081,-0.0173081
-0.196928,-0.00253824,-2.53824,-16.6931,-0.0166931
-0.19841,-0.00198008,-1.98008,-13.0223,-0.0130223
-0.198269,-0.00100828,-1.00828,-6.63109,-0.00663109
-0.196625,-0.000335094,-0.335094,-2.2038,-0.0022038
-0.194406,-0.000100392,-0.100392,-0.660245,-0.000660245
-0.192219,-4.68219e-05,-0.0468219,-0.307932,-0.000307932
-0.190149,1.8868e-05,0.018868,0.124088,0.000124088
-0.188151,0.000131711,0.131711,0.866214,0.000866214
-0.186183,0.00024572,0.24572,1.61601,0.00161601
-0.184217,0.000378028,0.378028,2.48616,0.00248616
-0.1822052,0.000505669,0.505669,3.32561,0.00332561
-0.1802422,0.000631559,0.631559,4.15354,0.00415354
-0.178247,0.000761613,0.761613,5.00886,0.00500886
-0.176253,0.000880343,0.880343,5.78971,0.00578971
-0.174252,0.00101907,1.01907,6.70206,0.00670206
-0.172245,0.00114867,1.14867,7.55441,0.00755441
-0.17025,0.00127135,1.27135,8.36125,0.00836125
-0.168241,0.00141377,1.41377,9.29784,0.00929784
-0.166237,0.00157397,1.57397,10.3515,0.0103515
-0.164274,0.00171329,1.71329,11.2677,0.0112677
-0.162283,0.00185421,1.85421,12.1945,0.0121945
-0.160285,0.0020033,2.0033,13.175,0.013175
-0.158288,0.00213041,2.13041,14.011,0.014011
-0.156248,0.00224586,2.24586,14.7702,0.0147702
-0.154263,0.00238649,2.38649,15.6951,0.0156951
-0.152244,0.00250432,2.50432,16.47,0.01647
-0.150231,0.00260608,2.60608,17.1393,0.0171393
-0.14823,0.00269243,2.69243,17.7071,0.0177071
-0.146256,0.0027369,2.7369,17.9996,0.0179996
-0.144291,0.00274714,2.74714,18.067,0.018067
-0.142344,0.00277172,2.77172,18.2286,0.0182286
-0.140329,0.00279416,2.79416,18.3762,0.0183762
-0.138297,0.00283561,2.83561,18.6488,0.0186488
-0.136272,0.00286295,2.86295,18.8286,0.0188286
-0.134256,0.00286754,2.86754,18.8588,0.0188588
-0.132262,0.00286329,2.86329,18.8309,0.0188309
-0.130281,0.00285165,2.85165,18.7543,0.0187543
-0.128309,0.00284513,2.84513,18.7114,0.0187114
-0.1263319,0.00283022,2.83022,18.6134,0.0186134
-0.1243063,0.00280787,2.80787,18.4664,0.0184664
-0.122315,0.00276671,2.76671,18.1957,0.0181957
-0.120289,0.00269916,2.69916,17.7514,0.0177514
-0.1182868,0.00264111,2.64111,17.3697,0.0173697
-0.116279,0.00258372,2.58372,16.9922,0.0169922
-0.114305,0.00253103,2.53103,16.6457,0.0166457
-0.112308,0.00245706,2.45706,16.1592,0.0161592
-0.110275,0.00239559,2.39559,15.7549,0.0157549
-0.108295,0.0023317,2.3317,15.3348,0.0153348
-0.106274,0.0022488,2.2488,14.7896,0.0147896
-0.104271,0.00216775,2.16775,14.2566,0.0142566
-0.102315,0.00208336,2.08336,13.7015,0.0137015
-0.100334,0.00201378,2.01378,13.2439,0.0132439
-0.0983046,0.00195591,1.95591,12.8634,0.0128634
-0.0962495,0.00188914,1.88914,12.4242,0.0124242
-0.09424641,0.00179621,1.79621,11.813,0.011813
-0.0923055,0.00174314,1.74314,11.464,0.011464
-0.0902807,0.00170533,1.70533,11.2153,0.0112153
-0.0882906,0.00164014,1.64014,10.7866,0.0107866
-0.0862695,0.00157225,1.57225,10.3401,0.0103401
-0.0842835,0.00148712,1.48712,9.78027,0.00978027
-0.0823182,0.00140931,1.40931,9.26854,0.00926854
-0.0803582,0.00134561,1.34561,8.8496,0.0088496
-0.0783629,0.00131805,1.31805,8.66839,0.00866839
-0.0763395,0.00129042,1.29042,8.48665,0.00848665
-0.0743699,0.00124292,1.24292,8.17428,0.00817428
-0.07236129,0.00119094,1.19094,7.83243,0.00783243
-0.0703198,0.0011422,1.1422,7.51186,0.00751186
-0.06831307,0.00110412,1.10412,7.2614,0.0072614
-0.0663068,0.00106659,1.06659,7.01461,0.00701461
-0.0643296,0.00104246,1.04246,6.85589,0.00685589
-0.0623365,0.0010113,1.0113,6.65096,0.00665096
-0.0603408,0.000972605,0.972605,6.39648,0.00639648
-0.0583402,0.000926328,0.926328,6.09214,0.00609214
-0.0563651,0.000908162,0.908162,5.97267,0.00597267
-0.0543654,0.000875304,0.875304,5.75657,0.00575657
-0.0523468,0.000839926,0.839926,5.5239,0.0055239
-0.0503321,0.000821999,0.821999,5.406,0.005406
-0.0483453,0.000808262,0.808262,5.31565,0.00531565
-0.0463407,0.000795293,0.795293,5.23037,0.00523037
-0.044361,0.000772353,0.772353,5.0795,0.0050795
-0.042377,0.000751933,0.751933,4.9452,0.0049452
-0.0403592,0.000740901,0.740901,4.87265,0.00487265
-0.038354,0.000737215,0.737215,4.8484,0.0048484
-0.0363575,0.000721833,0.721833,4.74724,0.00474724
-0.0343926,0.000692502,0.692502,4.55434,0.00455434
-0.0323931,0.00066569,0.66569,4.37801,0.00437801
-0.0303522,0.000655347,0.655347,4.30999,0.00430999
-0.0283043,0.00063917,0.63917,4.2036,0.0042036
-0.0263316,0.000621773,0.621773,4.08918,0.00408918
-0.0243463,0.000583319,0.583319,3.83629,0.00383629
-0.0223587,0.000546218,0.546218,3.59228,0.00359228
-0.020334,0.000527972,0.527972,3.47229,0.00347229
-0.01836516,0.000518191,0.518191,3.40796,0.00340796
-0.0163628,0.000495379,0.495379,3.25793,0.00325793
-0.0143454,0.000469946,0.469946,3.09067,0.00309067
-0.0123576,0.000463422,0.463422,3.04777,0.00304777
-0.0103836,0.000458887,0.458887,3.01794,0.00301794
-0.00839875,0.000455758,0.455758,2.99736,0.00299736
-0.00638759,0.000439422,0.439422,2.88992,0.00288992
-0.00437685,0.000425499,0.425499,2.79836,0.00279836
-0.00237353,0.000432845,0.432845,2.84667,0.00284667
-0.000368312,0.000415739,0.415739,2.73417,0.00273417
0.00161293,0.000400782,0.400782,2.6358,0.0026358
0.00360266,0.000375111,0.375111,2.46697,0.00246697
0.00560788,0.000372777,0.372777,2.45162,0.00245162
0.00761374,0.000370629,0.370629,2.4375,0.0024375
0.00961259,0.00037108,0.37108,2.44046,0.00244046
0.0116238,0.000364715,0.364715,2.3986,0.0023986
0.0135925,0.000355884,0.355884,2.34052,0.00234052
0.0156202,0.000359119,0.359119,2.3618,0.0023618
0.01766149,0.000368428,0.368428,2.42302,0.00242302
0.0196444,0.000349837,0.349837,2.30076,0.00230076
0.0216189,0.000360286,0.360286,2.36948,0.00236948
0.0236065,0.000377965,0.377965,2.48574,0.00248574
0.0256217,0.000365776,0.365776,2.40558,0.00240558
0.0276171,0.000350951,0.350951,2.30808,0.00230808
0.0296122,0.0003806,0.3806,2.50308,0.00250308
0.031632,0.000400809,0.400809,2.63598,0.00263598
0.0336283,0.000392322,0.392322,2.58017,0.00258017
0.0356189,0.00039386,0.39386,2.59028,0.00259028
0.0375919,0.00038967,0.38967,2.56273,0.00256273
0.0395621,0.000378558,0.378558,2.48965,0.00248965
0.04156987,0.000394073,0.394073,2.59168,0.00259168
0.0435647,0.000412955,0.412955,2.71586,0.00271586
0.0455283,0.000426003,0.426003,2.80167,0.00280167
0.0475433,0.000423377,0.423377,2.7844,0.0027844
0.0495398,0.000414997,0.414997,2.72929,0.00272929
0.0515565,0.000399695,0.399695,2.62865,0.00262865
0.0535668,0.000373758,0.373758,2.45808,0.00245808
0.0556051,0.000362143,0.362143,2.38169,0.00238169
0.05762925,0.000355672,0.355672,2.33913,0.00233913
0.0596324,0.000359146,0.359146,2.36198,0.00236198
0.06162972,0.000353258,0.353258,2.32326,0.00232326
0.0635802,0.000349572,0.349572,2.29901,0.00229901
0.065558,0.00034562,0.34562,2.27302,0.00227302
0.0675463,0.000317032,0.317032,2.08501,0.00208501
0.0695475,0.000308334,0.308334,2.0278,0.0020278
0.0715707,0.000297275,0.297275,1.95507,0.00195507
0.0735327,0.000287834,0.287834,1.89298,0.00189298
0.0754914,0.000289823,0.289823,1.90606,0.00190606
0.0775153,0.000297779,0.297779,1.95839,0.00195839
0.0795683,0.000309209,0.309209,2.03356,0.00203356
0.081582,0.000320347,0.320347,2.10681,0.00210681
0.0835832,0.000314486,0.314486,2.06827,0.00206827
0.085572,0.000299105,0.299105,1.96711,0.00196711
0.0875575,0.000287701,0.287701,1.89211,0.00189211
0.0895311,0.000275396,0.275396,1.81118,0.00181118
0.0915351,0.000273142,0.273142,1.79636,0.00179636
0.0935182,0.000294013,0.294013,1.93362,0.00193362
0.095525,0.00029502,0.29502,1.94025,0.00194025
0.0975448,0.000310402,0.310402,2.04141,0.00204141
0.0995509,0.000325253,0.325253,2.13908,0.00213908
0.101524,0.00032109,0.32109,2.11169,0.00211169
0.103521,0.000289319,0.289319,1.90275,0.00190275
0.105532,0.000278949,0.278949,1.83455,0.00183455
0.107536,0.000280821,0.280821,1.84686,0.00184686
0.1094972,0.00029807,0.29807,1.9603,0.0019603
0.111471,0.000302473,0.302473,1.98926,0.00198926
0.113489,0.000284412,0.284412,1.87048,0.00187048
0.115538,0.00026736,0.26736,1.75833,0.00175833
0.117558,0.000270702,0.270702,1.78031,0.00178031
0.119549,0.000296267,0.296267,1.94844,0.00194844
0.121544,0.00029685,0.29685,1.95228,0.00195228
0.123501,0.000278923,0.278923,1.83438,0.00183438
0.125479,0.000252774,0.252774,1.66241,0.00166241
0.127493,0.000245189,0.245189,1.61253,0.00161253
0.129474,0.000244023,0.244023,1.60485,0.00160485
0.131496,0.000261977,0.261977,1.72293,0.00172293
0.133458,0.000275793,0.275793,1.8138,0.0018138
0.135468,0.000278472,0.278472,1.83141,0.00183141
0.137468,0.000267519,0.267519,1.75938,0.00175938
0.139536,0.000263356,0.263356,1.732,0.001732
0.141506,0.00026073,0.26073,1.71473,0.00171473
0.1434985,0.000270834,0.270834,1.78118,0.00178118
0.145471,0.000264576,0.264576,1.74002,0.00174002
0.147457,0.000251581,0.251581,1.65456,0.00165456
0.149497,0.000252191,0.252191,1.65857,0.00165857
0.151489,0.000260624,0.260624,1.71403,0.00171403
0.153509,0.000269906,0.269906,1.77508,0.00177508
0.15549,0.000260677,0.260677,1.71438,0.00171438
0.157484,0.000245932,0.245932,1.61741,0.00161741
0.159476,0.000224928,0.224928,1.47927,0.00147927
0.161483,0.000230842,0.230842,1.51817,0.00151817
0.1634735,0.000239355,0.239355,1.57415,0.00157415
0.165484,0.000249937,0.249937,1.64375,0.00164375
0.167487,0.00023909,0.23909,1.57241,0.00157241
0.169466,0.000231259,0.231259,1.52091,0.00152091
0.171454,0.000212464,0.212464,1.3973,0.0013973
0.173452,0.000225883,0.225883,1.48555,0.00148555
0.175478,0.000238135,0.238135,1.56613,0.00156613
0.177512,0.000236093,0.236093,1.5527,0.0015527
0.179529,0.000233972,0.233972,1.53875,0.00153875
0.181526,0.000225962,0.225962,1.48608,0.00148608
0.183524,0.00021143,0.21143,1.3905,0.0013905
0.185509,0.000212039,0.212039,1.39451,0.00139451
0.187474,0.000227474,0.227474,1.49602,0.00149602
0.189469,0.000229834,0.229834,1.51154,0.00151154
0.19145,0.000232725,0.232725,1.53055,0.00153055
0.193473,0.000220818,0.220818,1.45224,0.00145224
0.195497,0.00021562,0.21562,1.41806,0.00141806
0.197504,0.000218696,0.218696,1.43829,0.00143829
0.199491,0.000203845,0.203845,1.34062,0.00134062
0.201442,0.000205516,0.205516,1.3516,0.0013516
0.2034525,0.000201882,0.201882,1.32771,0.00132771
0.205435,0.000195809,0.195809,1.28777,0.00128777
0.207438,0.000181886,0.181886,1.1962,0.0011962
0.209434,0.000199098,0.199098,1.3094,0.0013094
0.211385,0.000201003,0.201003,1.32193,0.00132193
0.213402,0.000201378,0.201378,1.3244,0.0013244
0.215433,0.000217927,0.217927,1.43323,0.00143323
0.217493,0.000219226,0.219226,1.44178,0.00144178
0.219484,0.00020777,0.20777,1.36643,0.00136643
0.221475,0.000197745,0.197745,1.3005,0.0013005
0.223457,0.000187243,0.187243,1.23143,0.00123143
0.225428,0.000190452,0.190452,1.25254,0.00125254
0.2274341,0.000190903,0.190903,1.2555,0.0012555
0.229435,0.000191089,0.191089,1.25672,0.00125672
0.231451,0.000205834,0.205834,1.3537,0.0013537
0.233468,0.000202784,0.202784,1.33364,0.00133364
0.235445,0.000196366,0.196366,1.29143,0.00129143
0.237417,0.000207372,0.207372,1.36381,0.00136381
0.239399,0.00022522,0.22522,1.48119,0.00148119
0.241436,0.00022583,0.22583,1.4852,0.0014852
0.243462,0.000217662,0.217662,1.43149,0.00143149
0.245461,0.000235244,0.235244,1.54712,0.00154712
0.247463,0.000253172,0.253172,1.66502,0.00166502
0.249463,0.000240495,0.240495,1.58165,0.00158165
0.251461,0.000219836,0.219836,1.44579,0.00144579
0.253462,0.000201433,0.201433,1.32476,0.00132476
0.255451,0.000200662,0.200662,1.31969,0.00131969
0.257453,0.00020525,0.20525,1.34986,0.00134986
0.259444,0.000216601,0.216601,1.42451,0.00142451
0.261446,0.000247152,0.247152,1.62543,0.00162543
0.26341,0.000258343,0.258343,1.69903,0.00169903
0.265404,0.000232142,0.232142,1.52671,0.00152671
0.2674,0.000240973,0.240973,1.58479,0.00158479
0.269403,0.000239169,0.239169,1.57293,0.00157293
0.271414,0.000245004,0.245004,1.6113,0.0016113
0.273424,0.000252482,0.252482,1.66049,0.00166049
0.275403,0.000265451,0.265451,1.74578,0.00174578
0.277399,0.000255559,0.255559,1.68072,0.00168072
0.279365,0.000259006,0.259006,1.70339,0.00170339
0.2813845,0.000255161,0.255161,1.6781,0.0016781
0.283382,0.000254816,0.254816,1.67584,0.00167584
0.285371,0.000259722,0.259722,1.7081,0.0017081
0.287377,0.000254074,0.254074,1.67095,0.00167095
0.289389,0.000274786,0.274786,1.80717,0.00180717
0.291399,0.000303825,0.303825,1.99815,0.00199815
0.293419,0.000305761,0.305761,2.01088,0.00201088
0.295429,0.000307876,0.307876,2.02479,0.00202479
0.297383,0.000285553,0.285553,1.87798,0.00187798
0.299378,0.000298998,0.298998,1.96641,0.00196641
0.301399,0.000295657,0.295657,1.94443,0.00194443
0.303378,0.000300404,0.300404,1.97565,0.00197565
0.305384,0.000321037,0.321037,2.11135,0.00211135
0.307351,0.000331592,0.331592,2.18076,0.00218076
0.309368,0.00033915,0.33915,2.23047,0.00223047
0.311391,0.000334217,0.334217,2.19803,0.00219803
0.313404,0.000330212,0.330212,2.17169,0.00217169
0.315413,0.000330849,0.330849,2.17588,0.00217588
0.317369,0.000335543,0.335543,2.20675,0.00220675
0.319354,0.000352091,0.352091,2.31558,0.00231558
0.321364,0.000350102,0.350102,2.3025,0.0023025
0.323358,0.000362859,0.362859,2.38639,0.00238639
0.325358,0.000371,0.371,2.43994,0.00243994
0.327337,0.00037771,0.37771,2.48407,0.00248407
0.329338,0.000389219,0.389219,2.55976,0.00255976
0.331341,0.000408393,0.408393,2.68586,0.00268586
0.333369,0.000419585,0.419585,2.75946,0.00275946
0.335332,0.000430856,0.430856,2.83359,0.00283359
0.337322,0.000445221,0.445221,2.92807,0.00292807
0.339354,0.000448677,0.448677,2.95079,0.00295079
0.3413423,0.000457747,0.457747,3.01044,0.00301044
0.343324,0.000467003,0.467003,3.07131,0.00307131
0.345336,0.000476523,0.476523,3.13393,0.00313393
0.3473255,0.000508984,0.508984,3.34741,0.00334741
0.349295,0.000540755,0.540755,3.55635,0.00355635
0.351292,0.00055115,0.55115,3.62472,0.00362472
0.3532781,0.000613446,0.613446,4.03442,0.00403442
0.355273,0.000720799,0.720799,4.74044,0.00474044
0.357263,0.000773016,0.773016,5.08386,0.00508386
0.359305,0.000776411,0.776411,5.10618,0.00510618
0.361347,0.000769251,0.769251,5.05909,0.00505909
0.363346,0.000785163,0.785163,5.16374,0.00516374
0.365327,0.0007941,0.7941,5.22252,0.00522252
0.36728,0.000804363,0.804363,5.29001,0.00529001
0.369293,0.000824465,0.824465,5.42222,0.00542222
0.371305,0.000844223,0.844223,5.55216,0.00555216
0.3733446,0.00087541,0.87541,5.75727,0.00575727
0.375321,0.000904688,0.904688,5.94982,0.00594982
0.37731,0.000932958,0.932958,6.13574,0.00613574
0.379304,0.000947222,0.947222,6.22955,0.00622955
0.381254,0.000974144,0.974144,6.4066,0.0064066
0.383246,0.00100578,1.00578,6.61468,0.00661468
0.385258,0.00105055,1.05055,6.90909,0.00690909
0.387282,0.00109582,1.09582,7.20681,0.00720681
0.389272,0.00114329,1.14329,7.51901,0.00751901
0.391271,0.00118129,1.18129,7.76894,0.00776894
0.393237,0.00120749,1.20749,7.94126,0.00794126
0.395222,0.00125449,1.25449,8.25032,0.00825032
0.397255,0.00129217,1.29217,8.49816,0.00849816
0.399274,0.00133899,1.33899,8.80604,0.00880604
0.401257,0.00138465,1.38465,9.10634,0.00910634
0.4032357,0.00145622,1.45622,9.57708,0.00957708
0.405238,0.00154493,1.54493,10.1605,0.0101605
0.407225,0.0016072,1.6072,10.57,0.01057
0.409226,0.00167777,1.67777,11.0341,0.0110341
0.4112545,0.00171273,1.71273,11.264,0.011264
0.413274,0.00174399,1.74399,11.4696,0.0114696
0.415273,0.0018012,1.8012,11.8458,0.0118458
0.417253,0.00186471,1.86471,12.2636,0.0122636
0.419246,0.00188683,1.88683,12.409,0.012409
0.421239,0.00192385,1.92385,12.6525,0.0126525
0.423222,0.0019727,1.9727,12.9738,0.0129738
0.425202,0.00200853,2.00853,13.2094,0.0132094
0.427207,0.00203492,2.03492,13.3829,0.0133829
0.429207,0.00204658,2.04658,13.4597,0.0134597
0.431217,0.00208599,2.08599,13.7189,0.0137189
0.433244,0.00212917,2.12917,14.0028,0.0140028
0.43524,0.00218958,2.18958,14.4001,0.0144001
0.437256,0.00225625,2.25625,14.8386,0.0148386
0.439255,0.0022941,2.2941,15.0875,0.0150875
0.441211,0.00234998,2.34998,15.455,0.015455
0.443213,0.00242853,2.42853,15.9716,0.0159716
0.44518,0.00252105,2.52105,16.5801,0.0165801
0.445825,0.00257624,2.57624,16.943,0.016943
0.447383,0.00261178,2.61178,17.1768,0.0171768
0.449102,0.00195636,1.95636,12.8663,0.0128663
0.449356,-0.000237898,-0.237898,-1.56457,-0.00156457
0.447669,-0.00203667,-2.03667,-13.3945,-0.0133945
0.445251,-0.00243577,-2.43577,-16.0192,-0.0160192
0.442971,-0.002332,-2.332,-15.3367,-0.0153367
0.44085,-0.00225498,-2.25498,-14.8302,-0.0148302
0.438915,-0.00223223,-2.23223,-14.6806,-0.0146806
0.4369486,-0.00226036,-2.26036,-14.8656,-0.0148656
0.434973,-0.00229161,-2.29161,-15.0711,-0.0150711
0.432971,-0.00233168,-2.33168,-15.3346,-0.0153346
0.430981,-0.00235082,-2.35082,-15.4605,-0.0154605
0.428984,-0.00235641,-2.35641,-15.4973,-0.0154973
0.426983,-0.00235252,-2.35252,-15.4717,-0.0154717
0.424974,-0.00234764,-2.34764,-15.4396,-0.0154396
0.422954,-0.00233926,-2.33926,-15.3845,-0.0153845
0.42098,-0.00233969,-2.33969,-15.3873,-0.0153873
0.419001,-0.00232908,-2.32908,-15.3175,-0.0153175
0.417044,-0.00233743,-2.33743,-15.3725,-0.0153725
0.415027,-0.00233966,-2.33966,-15.3871,-0.0153871
0.413011,-0.00231492,-2.31492,-15.2244,-0.0152244
0.41101,-0.00227551,-2.27551,-14.9652,-0.0149652
0.409009,-0.00223652,-2.23652,-14.7088,-0.0147088
0.406993,-0.00220276,-2.20276,-14.4868,-0.0144868
0.404974,-0.00217929,-2.17929,-14.3324,-0.0143324
0.402991,-0.00211384,-2.11384,-13.902,-0.013902
0.4009667,-0.002046,-2.046,-13.4559,-0.0134559
0.398977,-0.00198795,-1.98795,-13.0741,-0.0130741
0.396972,-0.00192863,-1.92863,-12.6839,-0.0126839
0.394993,-0.00187145,-1.87145,-12.3079,-0.0123079
0.3930271,-0.00179616,-1.79616,-11.8127,-0.0118127
0.391043,-0.00173365,-1.73365,-11.4016,-0.0114016
0.38903,-0.00168605,-1.68605,-11.0885,-0.0110885
0.387048,-0.00165507,-1.65507,-10.8848,-0.0108848
0.385057,-0.00161686,-1.61686,-10.6335,-0.0106335
0.383052,-0.00159222,-1.59222,-10.4715,-0.0104715
0.381038,-0.00155766,-1.55766,-10.2442,-0.0102442
0.379061,-0.0015156,-1.5156,-9.9676,-0.0099676
0.377072,-0.0014842,-1.4842,-9.76109,-0.00976109
0.375072,-0.00144257,-1.44257,-9.48727,-0.00948727
0.373044,-0.00140045,-1.40045,-9.2103,-0.0092103
0.371024,-0.00138425,-1.38425,-9.10373,-0.00910373
0.36902,-0.00137815,-1.37815,-9.06362,-0.00906362
0.367,-0.00135184,-1.35184,-8.8906,-0.0088906
0.365059,-0.00132546,-1.32546,-8.71706,-0.00871706
0.3630929,-0.00131426,-1.31426,-8.64346,-0.00864346
0.361096,-0.00132927,-1.32927,-8.74218,-0.00874218
0.35907,-0.00132983,-1.32983,-8.74584,-0.00874584
0.3570458,-0.00132294,-1.32294,-8.70049,-0.00870049
0.355059,-0.0013027,-1.3027,-8.56741,-0.00856741
0.3530736,-0.00128093,-1.28093,-8.42422,-0.00842422
0.351063,-0.00126364,-1.26364,-8.3105,-0.0083105
0.349071,-0.00124696,-1.24696,-8.2008,-0.0082008
0.347052,-0.00124438,-1.24438,-8.18388,-0.00818388
0.345048,-0.00118934,-1.18934,-7.8219,-0.0078219
0.343025,-0.00110995,-1.10995,-7.29978,-0.00729978
0.341071,-0.00104474,-1.04474,-6.8709,-0.0068709
0.339083,-0.00102217,-1.02217,-6.72248,-0.00672248
0.337089,-0.00100303,-1.00303,-6.59655,-0.00659655
0.335099,-0.000976877,-0.976877,-6.42458,-0.00642458
0.333085,-0.000973138,-0.973138,-6.39999,-0.00639999
0.331081,-0.000961867,-0.961867,-6.32586,-0.00632586
0.329061,-0.000961257,-0.961257,-6.32185,-0.00632185
0.327087,-0.000956987,-0.956987,-6.29377,-0.00629377
0.325087,-0.000943649,-0.943649,-6.20605,-0.00620605
0.323073,-0.00091864,-0.91864,-6.04157,-0.00604157
0.321087,-0.000908827,-0.908827,-5.97704,-0.00597704
0.319108,-0.00089692,-0.89692,-5.89873,-0.00589873
0.317111,-0.00090416,-0.90416,-5.94634,-0.00594634
0.315117,-0.000898537,-0.898537,-5.90937,-0.00590937
0.313118,-0.000895435,-0.895435,-5.88896,-0.00588896
0.311096,-0.000903444,-0.903444,-5.94163,-0.00594163
0.309083,-0.000920682,-0.920682,-6.055,-0.006055
0.307084,-0.000903762,-0.903762,-5.94373,-0.00594373
0.305094,-0.000890581,-0.890581,-5.85704,-0.00585704
0.303116,-0.000874961,-0.874961,-5.75431,-0.00575431
0.301134,-0.000880239,-0.880239,-5.78902,-0.00578902
0.2991263,-0.000870161,-0.870161,-5.72274,-0.00572274
0.2971105,-0.000839292,-0.839292,-5.51973,-0.00551973
0.2950955,-0.000834094,-0.834094,-5.48554,-0.00548554
0.293082,-0.000840459,-0.840459,-5.5274,-0.0055274
0.291078,-0.00083245,-0.83245,-5.47473,-0.00547473
0.289109,-0.000849343,-0.849343,-5.58583,-0.00558583
0.287138,-0.000864459,-0.864459,-5.68525,-0.00568525
0.285121,-0.00086255,-0.86255,-5.67269,-0.00567269
0.283116,-0.00085057,-0.85057,-5.5939,-0.0055939
0.281112,-0.000862895,-0.862895,-5.67496,-0.00567496
0.279148,-0.000852154,-0.852154,-5.60432,-0.00560432
0.27715,-0.000844145,-0.844145,-5.55165,-0.00555165
0.275132,-0.000849528,-0.849528,-5.58705,-0.00558705
0.273134,-0.000850616,-0.850616,-5.5942,-0.0055942
0.27112,-0.000860693,-0.860693,-5.66048,-0.00566048
0.269142,-0.000844224,-0.844224,-5.55217,-0.00555217
0.267151,-0.000823486,-0.823486,-5.41578,-0.00541578
0.265118,-0.000832317,-0.832317,-5.47386,-0.00547386
0.263093,-0.000834412,-0.834412,-5.48764,-0.00548764
0.261119,-0.000842766,-0.842766,-5.54258,-0.00554258
0.259118,-0.000823778,-0.823778,-5.4177,-0.0054177
0.257143,-0.000839902,-0.839902,-5.52374,-0.00552374
0.255152,-0.00085645,-0.85645,-5.63257,-0.00563257
0.253141,-0.00083725,-0.83725,-5.5063,-0.0055063
0.251138,-0.000810544,-0.810544,-5.33067,-0.00533067
0.249143,-0.00080097,-0.80097,-5.2677,-0.0052677
0.247182,-0.000828047,-0.828047,-5.44578,-0.00544578
0.2451791,-0.000863451,-0.863451,-5.67862,-0.00567862
0.243168,-0.000879576,-0.879576,-5.78466,-0.00578466
0.241172,-0.00086645,-0.86645,-5.69834,-0.00569834
0.239207,-0.000856105,-0.856105,-5.63031,-0.00563031
0.237179,-0.00083908,-0.83908,-5.51833,-0.00551833
0.235154,-0.000841944,-0.841944,-5.53717,-0.00553717
0.233145,-0.000862178,-0.862178,-5.67025,-0.00567025
0.231136,-0.000866236,-0.866236,-5.69693,-0.00569693
0.229129,-0.000859261,-0.859261,-5.65106,-0.00565106
0.227156,-0.000856052,-0.856052,-5.62996,-0.00562996
0.225191,-0.00085775,-0.85775,-5.64112,-0.00564112
0.22322,-0.000863637,-0.863637,-5.67984,-0.00567984
0.221212,-0.000867854,-0.867854,-5.70757,-0.00570757
0.219212,-0.000883315,-0.883315,-5.80925,-0.00580925
0.217209,-0.000883262,-0.883262,-5.8089,-0.0058089
0.215195,-0.000873449,-0.873449,-5.74437,-0.00574437
0.213191,-0.000892676,-0.892676,-5.87082,-0.00587082
0.21118,-0.000894878,-0.894878,-5.8853,-0.0058853
0.209189,-0.000907766,-0.907766,-5.97006,-0.00597006
0.207197,-0.000897211,-0.897211,-5.90065,-0.00590065
0.205187,-0.000900871,-0.900871,-5.92471,-0.00592471
0.203186,-0.000898856,-0.898856,-5.91146,-0.00591146
0.201179,-0.000900579,-0.900579,-5.9228,-0.0059228
0.199186,-0.000893237,-0.893237,-5.87451,-0.00587451
0.197179,-0.000880106,-0.880106,-5.78815,-0.00578815
0.195191,-0.000890953,-0.890953,-5.85948,-0.00585948
0.193202,-0.000909702,-0.909702,-5.98279,-0.00598279
0.191178,-0.000903974,-0.903974,-5.94512,-0.00594512
0.189186,-0.000902807,-0.902807,-5.93745,-0.00593745
0.1871841,-0.000911108,-0.911108,-5.99204,-0.00599204
0.185178,-0.000921742,-0.921742,-6.06198,-0.00606198
0.183202,-0.000938556,-0.938556,-6.17255,-0.00617255
0.181215,-0.000933835,-0.933835,-6.14151,-0.00614151
0.179187,-0.000918268,-0.918268,-6.03913,-0.00603913
0.177193,-0.000925614,-0.925614,-6.08744,-0.00608744
0.175218,-0.000930202,-0.930202,-6.11761,-0.00611761
0.173225,-0.000938026,-0.938026,-6.16907,-0.00616907
0.1712306,-0.000950967,-0.950967,-6.25418,-0.00625418
0.169257,-0.000963114,-0.963114,-6.33406,-0.00633406
0.1672505,-0.000977249,-0.977249,-6.42702,-0.00642702
0.165245,-0.000981996,-0.981996,-6.45824,-0.00645824
0.1632061,-0.000987618,-0.987618,-6.49522,-0.00649522
0.161235,-0.000992339,-0.992339,-6.52626,-0.00652626
0.159214,-0.000987804,-0.987804,-6.49644,-0.00649644
0.157212,-0.000996281,-0.996281,-6.55219,-0.00655219
0.155207,-0.000992073,-0.992073,-6.52452,-0.00652452
0.1531993,-0.000995866,-0.995866,-6.54946,-0.00654946
0.151195,-0.00100387,-1.00387,-6.60213,-0.00660213
0.149247,-0.000992498,-0.992498,-6.52731,-0.00652731
0.147232,-0.000991861,-0.991861,-6.52312,-0.00652312
0.145232,-0.00100541,-1.00541,-6.61225,-0.00661225
0.143242,-0.00102127,-1.02127,-6.71655,-0.00671655
0.141218,-0.00103018,-1.03018,-6.77515,-0.00677515
0.139222,-0.00101934,-1.01934,-6.70382,-0.00670382
0.137246,-0.00100799,-1.00799,-6.62917,-0.00662917
0.13526,-0.00102358,-1.02358,-6.73172,-0.00673172
0.13325,-0.00103358,-1.03358,-6.79748,-0.00679748
0.131259,-0.00105042,-1.05042,-6.90823,-0.00690823
0.12928,-0.0010523,-1.0523,-6.92061,-0.00692061
0.1272628,-0.00104734,-1.04734,-6.888,-0.006888
0.125259,-0.00104371,-1.04371,-6.8641,-0.0068641
0.123269,-0.00103519,-1.03519,-6.80811,-0.00680811
0.121265,-0.00103896,-1.03896,-6.83288,-0.00683288
0.11926,-0.00105577,-1.05577,-6.94346,-0.00694346
0.117269,-0.00106689,-1.06689,-7.01654,-0.00701654
0.115244,-0.00107673,-1.07673,-7.08129,-0.00708129
0.113249,-0.00107917,-1.07917,-7.09729,-0.00709729
0.111232,-0.00107585,-1.07585,-7.07549,-0.00707549
0.109238,-0.00106012,-1.06012,-6.97206,-0.00697206
0.1072371,-0.00107635,-1.07635,-7.0788,-0.0070788
0.105263,-0.00108704,-1.08704,-7.14909,-0.00714909
0.1033,-0.00108224,-1.08224,-7.11752,-0.00711752
0.1013163,-0.00108105,-1.08105,-7.10967,-0.00710967
0.0993009,-0.00107468,-1.07468,-7.06781,-0.00706781
0.0973001,-0.00107696,-1.07696,-7.08281,-0.00708281
0.0952845,-0.00107938,-1.07938,-7.09869,-0.00709869
0.0932489,-0.00107924,-1.07924,-7.09781,-0.00709781
0.0912641,-0.00110112,-1.10112,-7.2417,-0.0072417
0.0892763,-0.00111603,-1.11603,-7.33972,-0.00733972
0.0873156,-0.00112687,-1.12687,-7.41106,-0.00741106
0.0853021,-0.00111128,-1.11128,-7.3085,-0.0073085
0.0832808,-0.00111926,-1.11926,-7.361,-0.007361
0.08128722,-0.00112878,-1.12878,-7.42362,-0.00742362
0.0792512,-0.00113061,-1.13061,-7.43565,-0.00743565
0.077273,-0.00112205,-1.12205,-7.37932,-0.00737932
0.0752786,-0.00112481,-1.12481,-7.39746,-0.00739746
0.0732973,-0.00114096,-1.14096,-7.50367,-0.00750367
0.0713176,-0.00115172,-1.15172,-7.57448,-0.00757448
0.069292,-0.00115963,-1.15963,-7.62646,-0.00762646
0.06730032,-0.00115292,-1.15292,-7.58233,-0.00758233
0.0653136,-0.00115406,-1.15406,-7.58983,-0.00758983
0.06331832,-0.00114329,-1.14329,-7.51902,-0.00751902
0.0613513,-0.00113573,-1.13573,-7.46931,-0.00746931
0.05931,-0.00116846,-1.16846,-7.68454,-0.00768454
0.0572997,-0.00119299,-1.19299,-7.84587,-0.00784587
0.0553034,-0.00120577,-1.20577,-7.92994,-0.00792994
0.05334,-0.00119042,-1.19042,-7.82896,-0.00782896
0.0513294,-0.00120553,-1.20553,-7.92837,-0.00792837
0.0493302,-0.00120739,-1.20739,-7.94058,-0.00794058
0.0473113,-0.00121248,-1.21248,-7.97406,-0.00797406
0.0453017,-0.00122622,-1.22622,-8.06441,-0.00806441
0.0433102,-0.00123444,-1.23444,-8.11848,-0.00811848
0.0413156,-0.00123041,-1.23041,-8.09197,-0.00809197
0.03929789,-0.00121126,-1.21126,-7.96604,-0.00796604
0.0373294,-0.00122131,-1.22131,-8.03214,-0.00803214
0.0353216,-0.00123953,-1.23953,-8.15196,-0.00815196
0.0333304,-0.00125178,-1.25178,-8.23254,-0.00823254
0.0313725,-0.00126077,-1.26077,-8.29167,-0.00829167
0.0293601,-0.00126804,-1.26804,-8.33946,-0.00833946
0.0274034,-0.00127154,-1.27154,-8.36248,-0.00836248
0.0253812,-0.00128515,-1.28515,-8.45195,-0.00845195
0.0233372,-0.00128886,-1.28886,-8.47637,-0.00847637
0.0213177,-0.00130177,-1.30177,-8.56131,-0.00856131
0.0193352,-0.00129379,-1.29379,-8.50881,-0.00850881
0.0173432,-0.00129432,-1.29432,-8.5123,-0.0085123
0.0153394,-0.00130909,-1.30909,-8.60945,-0.00860945
0.0133433,-0.00133712,-1.33712,-8.7938,-0.0087938
0.0113729,-0.00133886,-1.33886,-8.80521,-0.00880521
0.00938298,-0.0013545,-1.3545,-8.90804,-0.00890804
0.00734528,-0.00136144,-1.36144,-8.95374,-0.00895374
0.00532648,-0.00137433,-1.37433,-9.0385,-0.0090385
0.003336753,-0.00137789,-1.37789,-9.06187,-0.00906187
0.00134214,-0.00138263,-1.38263,-9.09309,-0.00909309
-6.601084E-4,-0.00138637,-1.38637,-9.11769,-0.00911769
-0.00267191,-0.00137958,-1.37958,-9.07304,-0.00907304
-0.00466949,-0.00138597,-1.38597,-9.11507,-0.00911507
-0.00669042,-0.00140608,-1.40608,-9.24727,-0.00924727
-0.00868057,-0.00141414,-1.41414,-9.3003,-0.0093003
-0.0106726,-0.00140653,-1.40653,-9.25024,-0.00925024
-0.0126624,-0.00142005,-1.42005,-9.33919,-0.00933919
-0.01466568,-0.00143485,-1.43485,-9.43651,-0.00943651
-0.0166569,-0.00143183,-1.43183,-9.41663,-0.00941663
-0.0186545,-0.00144763,-1.44763,-9.52058,-0.00952058
-0.0206274,-0.00147694,-1.47694,-9.71331,-0.00971331
-0.0226547,-0.00149879,-1.49879,-9.85702,-0.00985702
-0.0246595,-0.00150821,-1.50821,-9.91894,-0.00991894
-0.0266363,-0.00152237,-1.52237,-10.0121,-0.0100121
-0.028619,-0.0015273,-1.5273,-10.0445,-0.0100445
-0.0306312,-0.0015194,-1.5194,-9.99253,-0.00999253
-0.0326671,-0.0015295,-1.5295,-10.059,-0.010059
-0.0346837,-0.00155363,-1.55363,-10.2177,-0.0102177
-0.0366189,-0.00155257,-1.55257,-10.2107,-0.0102107
-0.0386182,-0.00158082,-1.58082,-10.3965,-0.0103965
-0.0406135,-0.0016058,-1.6058,-10.5608,-0.0105608
-0.0426276,-0.00162213,-1.62213,-10.6682,-0.0106682
-0.04460926,-0.00161943,-1.61943,-10.6504,-0.0106504
-0.0466181,-0.00163932,-1.63932,-10.7812,-0.0107812
-0.0486106,-0.00166348,-1.66348,-10.9401,-0.0109401
-0.05060222,-0.0017026,-1.7026,-11.1974,-0.0111974
-0.0526357,-0.00172694,-1.72694,-11.3575,-0.0113575
-0.0545921,-0.00174543,-1.74543,-11.4791,-0.0114791
-0.0565714,-0.00178001,-1.78001,-11.7065,-0.0117065
-0.0585881,-0.00179613,-1.79613,-11.8125,-0.0118125
-0.06064,-0.00181735,-1.81735,-11.9521,-0.0119521
-0.0626408,-0.00182157,-1.82157,-11.9798,-0.0119798
-0.0646186,-0.00180801,-1.80801,-11.8907,-0.0118907
-0.0665935,-0.00183726,-1.83726,-12.083,-0.012083
-0.068576,-0.0018724,-1.8724,-12.3141,-0.0123141
-0.0705834,-0.00191126,-1.91126,-12.5697,-0.0125697
-0.0725944,-0.00196421,-1.96421,-12.918,-0.012918
-0.0746309,-0.00199739,-1.99739,-13.1362,-0.0131362
-0.0766088,-0.00202641,-2.02641,-13.327,-0.013327
-0.0786204,-0.00205738,-2.05738,-13.5307,-0.0135307
-0.0805838,-0.00210146,-2.10146,-13.8205,-0.0138205
-0.0825807,-0.00215285,-2.15285,-14.1586,-0.0141586
-0.0845736,-0.00219436,-2.19436,-14.4315,-0.0144315
-0.0865695,-0.00225212,-2.25212,-14.8114,-0.0148114
-0.0885643,-0.00230391,-2.30391,-15.152,-0.015152
-0.0905297,-0.00236395,-2.36395,-15.5469,-0.0155469
-0.092537,-0.00242291,-2.42291,-15.9346,-0.0159346
-0.0945098,-0.00245094,-2.45094,-16.119,-0.016119
-0.0965434,-0.00250201,-2.50201,-16.4549,-0.0164549
-0.0985508,-0.00255816,-2.55816,-16.8241,-0.0168241
-0.100536,-0.00262255,-2.62255,-17.2476,-0.0172476
-0.102533,-0.00267471,-2.67471,-17.5907,-0.0175907
-0.104524,-0.00274907,-2.74907,-18.0797,-0.0180797
-0.106556,-0.00281572,-2.81572,-18.518,-0.018518
-0.108548,-0.0028952,-2.8952,-19.0407,-0.0190407
-0.110549,-0.00297274,-2.97274,-19.5507,-0.0195507
-0.112553,-0.00306676,-3.06676,-20.169,-0.020169
-0.114547,-0.00316293,-3.16293,-20.8015,-0.0208015
-0.116531,-0.0032398,-3.2398,-21.307,-0.021307
-0.1185249,-0.00333631,-3.33631,-21.9417,-0.0219417
-0.120529,-0.00343923,-3.43923,-22.6186,-0.0226186
-0.122538,-0.00354104,-3.54104,-23.2882,-0.0232882
-0.124542,-0.003652,-3.652,-24.0179,-0.0240179
-0.126518,-0.00374214,-3.74214,-24.6108,-0.0246108
-0.128502,-0.00384273,-3.84273,-25.2723,-0.0252723
-0.130533,-0.00393773,-3.93773,-25.8971,-0.0258971
-0.132511,-0.00404458,-4.04458,-26.5998,-0.0265998
-0.134512,-0.00414792,-4.14792,-27.2794,-0.0272794
-0.13647,-0.0042483,-4.2483,-27.9396,-0.0279396
-0.1384844,-0.00434531,-4.34531,-28.5776,-0.0285776
-0.1405,-0.00446158,-4.46158,-29.3422,-0.0293422
-0.142528,-0.00454718,-4.54718,-29.9052,-0.0299052
-0.144471,-0.00463417,-4.63417,-30.4773,-0.0304773
-0.146462,-0.004728,-4.728,-31.0944,-0.0310944
-0.148485,-0.00480671,-4.80671,-31.612,-0.031612
-0.150491,-0.00485211,-4.85211,-31.9106,-0.0319106
-0.152494,-0.00490048,-4.90048,-32.2288,-0.0322288
-0.154479,-0.00493745,-4.93745,-32.4719,-0.0324719
-0.156472,-0.00492829,-4.92829,-32.4116,-0.0324116
-0.158494,-0.00490825,-4.90825,-32.2799,-0.0322799
-0.160531,-0.00490372,-4.90372,-32.25,-0.03225
-0.162547,-0.00484185,-4.84185,-31.8431,-0.0318431
-0.16456,-0.00472073,-4.72073,-31.0466,-0.0310466
-0.166559,-0.00458805,-4.58805,-30.174,-0.030174
-0.168546,-0.00442813,-4.42813,-29.1223,-0.0291223
-0.170569,-0.00425825,-4.25825,-28.005,-0.028005
-0.172569,-0.00407064,-4.07064,-26.7712,-0.0267712
-0.174585,-0.00390182,-3.90182,-25.6609,-0.0256609
-0.176576,-0.00371309,-3.71309,-24.4197,-0.0244197
-0.178571,-0.00354085,-3.54085,-23.287,-0.023287
-0.1805722,-0.00339454,-3.39454,-22.3247,-0.0223247
-0.182511,-0.00324502,-3.24502,-21.3414,-0.0213414
-0.184524,-0.00312213,-3.12213,-20.5332,-0.0205332
-0.18657,-0.00301547,-3.01547,-19.8317,-0.0198317
-0.188574,-0.00288815,-2.88815,-18.9943,-0.0189943
-0.19054,-0.00277793,-2.77793,-18.2695,-0.0182695
-0.19255,-0.00269142,-2.69142,-17.7005,-0.0177005
-0.194556,-0.00259478,-2.59478,-17.065,-0.017065
-0.195299,-0.00255633,-2.55633,-16.8121,-0.0168121
-0.1953139,-0.00254869,-2.54869,-16.7618,-0.0167618