File: literature/rawdata/engstfeld_2018_polycrystalline_17743/1708030001Cu100_UHV_C01_cycle36.csv
E,<I>,I (raw),j,j
V vs. RHE,mA,\g(m)A,\g(m)A/cm\+(-2),mA/cm\+(-2)
-0.195493,-0.00235679,-2.35679,-15.4998,-0.0154998
-0.19601,-0.00233335,-2.33335,-15.3456,-0.0153456
-0.197018,-0.00226652,-2.26652,-14.9061,-0.0149061
-0.197927,-0.00207504,-2.07504,-13.6468,-0.0136468
-0.198536,-0.00169424,-1.69424,-11.1424,-0.0111424
-0.198693,-0.00119681,-1.19681,-7.87098,-0.00787098
-0.198375,-0.000689719,-0.689719,-4.53604,-0.00453604
-0.197652,-0.00026951,-0.26951,-1.77247,-0.00177247
-0.196693,1.96901e-05,0.0196901,0.129495,0.000129495
-0.195581,0.000190532,0.190532,1.25306,0.00125306
-0.194413,0.000278896,0.278896,1.8342,0.0018342
-0.193294,0.000319286,0.319286,2.09983,0.00209983
-0.192216,0.000353444,0.353444,2.32448,0.00232448
-0.1911993,0.000379327,0.379327,2.4947,0.0024947
-0.190163,0.000408632,0.408632,2.68743,0.00268743
-0.189185,0.000448306,0.448306,2.94835,0.00294835
-0.188162,0.000505456,0.505456,3.32421,0.00332421
-0.187198,0.000560857,0.560857,3.68856,0.00368856
-0.186239,0.000619545,0.619545,4.07453,0.00407453
-0.185228,0.000688247,0.688247,4.52636,0.00452636
-0.184244,0.000767315,0.767315,5.04636,0.00504636
-0.183248,0.000837884,0.837884,5.51047,0.00551047
-0.182237,0.000897846,0.897846,5.90482,0.00590482
-0.181256,0.000949825,0.949825,6.24667,0.00624667
-0.180253,0.0010118,1.0118,6.65427,0.00665427
-0.179231,0.0010776,1.0776,7.08699,0.00708699
-0.178251,0.00114003,1.14003,7.49755,0.00749755
-0.1772576,0.0011946,1.1946,7.8565,0.0078565
-0.176243,0.00125258,1.25258,8.23776,0.00823776
-0.175235,0.00130461,1.30461,8.57996,0.00857996
-0.174249,0.00137804,1.37804,9.06291,0.00906291
-0.173261,0.00143411,1.43411,9.43162,0.00943162
-0.172279,0.00149622,1.49622,9.84009,0.00984009
-0.171285,0.00155886,1.55886,10.2521,0.0102521
-0.170282,0.00163698,1.63698,10.7659,0.0107659
-0.169296,0.00171885,1.71885,11.3043,0.0113043
-0.168303,0.00178817,1.78817,11.7602,0.0117602
-0.167302,0.00185601,1.85601,12.2063,0.0122063
-0.166312,0.00193022,1.93022,12.6944,0.0126944
-0.165311,0.00200797,2.00797,13.2057,0.0132057
-0.164289,0.00208075,2.08075,13.6844,0.0136844
-0.163299,0.00214476,2.14476,14.1053,0.0141053
-0.162317,0.00221881,2.21881,14.5923,0.0145923
-0.161329,0.00229699,2.29699,15.1065,0.0151065
-0.160318,0.00235926,2.35926,15.516,0.015516
-0.159313,0.00241134,2.41134,15.8585,0.0158585
-0.1583019,0.00245953,2.45953,16.1755,0.0161755
-0.157323,0.00250904,2.50904,16.5011,0.0165011
-0.156298,0.00256818,2.56818,16.89,0.01689
-0.155311,0.00262642,2.62642,17.273,0.017273
-0.1542953,0.00268145,2.68145,17.6349,0.0176349
-0.153302,0.00273457,2.73457,17.9843,0.0179843
-0.152304,0.0027875,2.7875,18.3324,0.0183324
-0.151312,0.00283189,2.83189,18.6244,0.0186244
-0.150318,0.0028747,2.8747,18.9059,0.0189059
-0.1493233,0.00292633,2.92633,19.2455,0.0192455
-0.148322,0.00297433,2.97433,19.5611,0.0195611
-0.147292,0.00301037,3.01037,19.7982,0.0197982
-0.146292,0.00303642,3.03642,19.9694,0.0199694
-0.145282,0.00305156,3.05156,20.069,0.020069
-0.144273,0.00306336,3.06336,20.1467,0.0201467
-0.1432917,0.00307206,3.07206,20.2038,0.0202038
-0.142306,0.00307885,3.07885,20.2485,0.0202485
-0.141317,0.00308609,3.08609,20.2961,0.0202961
-0.140351,0.00309754,3.09754,20.3715,0.0203715
-0.139343,0.00310943,3.10943,20.4496,0.0204496
-0.138332,0.0031124,3.1124,20.4691,0.0204691
-0.137342,0.00311672,3.11672,20.4976,0.0204976
-0.136328,0.00312528,3.12528,20.5539,0.0205539
-0.1353332,0.00312714,3.12714,20.5661,0.0205661
-0.134336,0.00311903,3.11903,20.5127,0.0205127
-0.133331,0.00310386,3.10386,20.413,0.020413
-0.132351,0.00309176,3.09176,20.3334,0.0203334
-0.131326,0.00306949,3.06949,20.1869,0.0201869
-0.1302952,0.00305275,3.05275,20.0769,0.0200769
-0.1292838,0.00303795,3.03795,19.9796,0.0199796
-0.12831,0.00302172,3.02172,19.8728,0.0198728
-0.1273,0.00301098,3.01098,19.8022,0.0198022
-0.126301,0.00298446,2.98446,19.6278,0.0196278
-0.125306,0.00297051,2.97051,19.536,0.019536
-0.124299,0.0029411,2.9411,19.3426,0.0193426
-0.123318,0.00290566,2.90566,19.1095,0.0191095
-0.1223259,0.00287499,2.87499,18.9078,0.0189078
-0.1213272,0.00285319,2.85319,18.7644,0.0187644
-0.120325,0.00283624,2.83624,18.653,0.018653
-0.119317,0.00280336,2.80336,18.4367,0.0184367
-0.118334,0.00277318,2.77318,18.2382,0.0182382
-0.117319,0.00273945,2.73945,18.0164,0.0180164
-0.11632,0.00271372,2.71372,17.8472,0.0178472
-0.1153,0.00268314,2.68314,17.6461,0.0176461
-0.114295,0.00263827,2.63827,17.351,0.017351
-0.113291,0.00259146,2.59146,17.0432,0.0170432
-0.11227,0.00255707,2.55707,16.8169,0.0168169
-0.111295,0.00252739,2.52739,16.6218,0.0166218
-0.110276,0.00248533,2.48533,16.3452,0.0163452
-0.109278,0.00243765,2.43765,16.0316,0.0160316
-0.10826,0.00238254,2.38254,15.6691,0.0156691
-0.107269,0.00234016,2.34016,15.3904,0.0153904
-0.106309,0.00229534,2.29534,15.0957,0.0150957
-0.105324,0.00225487,2.25487,14.8295,0.0148295
-0.1043487,0.00221634,2.21634,14.5761,0.0145761
-0.10335,0.00217407,2.17407,14.2981,0.0142981
-0.1023693,0.00214046,2.14046,14.077,0.014077
-0.101366,0.00209551,2.09551,13.7815,0.0137815
-0.100341,0.00205695,2.05695,13.5279,0.0135279
-0.0993228,0.00202577,2.02577,13.3228,0.0133228
-0.0982938,0.00200198,2.00198,13.1663,0.0131663
-0.0972889,0.00197278,1.97278,12.9743,0.0129743
-0.0962945,0.00193441,1.93441,12.7219,0.0127219
-0.0952837,0.00189394,1.89394,12.4558,0.0124558
-0.094305,0.00184845,1.84845,12.1566,0.0121566
-0.0933042,0.00180488,1.80488,11.8701,0.0118701
-0.0923006,0.00176195,1.76195,11.5877,0.0115877
-0.0913316,0.0017302,1.7302,11.3789,0.0113789
-0.090338,0.00170554,1.70554,11.2167,0.0112167
-0.0893447,0.00168445,1.68445,11.0781,0.0110781
-0.0883466,0.00164932,1.64932,10.847,0.010847
-0.0873407,0.00161442,1.61442,10.6174,0.0106174
-0.0863393,0.0015902,1.5902,10.4582,0.0104582
-0.08533486,0.00154451,1.54451,10.1577,0.0101577
-0.0843421,0.00151184,1.51184,9.94282,0.00994282
-0.0833509,0.0014867,1.4867,9.77748,0.00977748
-0.08236,0.00146113,1.46113,9.60934,0.00960934
-0.08136487,0.00142017,1.42017,9.33998,0.00933998
-0.0803578,0.00139213,1.39213,9.15552,0.00915552
-0.079344,0.00136107,1.36107,8.95128,0.00895128
-0.0783341,0.00133715,1.33715,8.79396,0.00879396
-0.0773575,0.00131872,1.31872,8.67275,0.00867275
-0.0763499,0.00129336,1.29336,8.50601,0.00850601
-0.0753438,0.00126716,1.26716,8.33369,0.00833369
-0.07435441,0.00124624,1.24624,8.19608,0.00819608
-0.0733511,0.00121765,1.21765,8.00806,0.00800806
-0.0723719,0.00119063,1.19063,7.83033,0.00783033
-0.07137,0.00117381,1.17381,7.71976,0.00771976
-0.0703444,0.00115342,1.15342,7.58563,0.00758563
-0.0693517,0.00113676,1.13676,7.4761,0.0074761
-0.068346,0.00111799,1.11799,7.35262,0.00735262
-0.0673486,0.00109484,1.09484,7.20036,0.00720036
-0.0663456,0.00107566,1.07566,7.07426,0.00707426
-0.0653548,0.00105888,1.05888,6.96385,0.00696385
-0.0643508,0.00104262,1.04262,6.85694,0.00685694
-0.0633534,0.00102695,1.02695,6.75386,0.00675386
-0.0623435,0.00101026,1.01026,6.64415,0.00664415
-0.0613439,0.000981676,0.981676,6.45614,0.00645614
-0.0603571,0.000965801,0.965801,6.35173,0.00635173
-0.0593544,0.000960327,0.960327,6.31574,0.00631574
-0.0583394,0.000952557,0.952557,6.26463,0.00626463
-0.0573352,0.000946086,0.946086,6.22208,0.00622208
-0.0563331,0.000927628,0.927628,6.10068,0.00610068
-0.0553488,0.00092007,0.92007,6.05098,0.00605098
-0.0543616,0.000911318,0.911318,5.99342,0.00599342
-0.0533767,0.000902275,0.902275,5.93395,0.00593395
-0.05235723,0.000896546,0.896546,5.89627,0.00589627
-0.0513401,0.000876895,0.876895,5.76703,0.00576703
-0.0503276,0.000864086,0.864086,5.68279,0.00568279
-0.0493264,0.000837964,0.837964,5.511,0.005511
-0.04831475,0.000813619,0.813619,5.35088,0.00535088
-0.0473445,0.000805663,0.805663,5.29856,0.00529856
-0.0463636,0.000805132,0.805132,5.29507,0.00529507
-0.0453535,0.000796381,0.796381,5.23752,0.00523752
-0.0443756,0.00079052,0.79052,5.19897,0.00519897
-0.0433816,0.000770921,0.770921,5.07008,0.00507008
-0.0423869,0.000755301,0.755301,4.96735,0.00496735
-0.0413846,0.000741909,0.741909,4.87927,0.00487927
-0.0403874,0.000727879,0.727879,4.78701,0.00478701
-0.039389,0.000723078,0.723078,4.75543,0.00475543
-0.0384054,0.000713002,0.713002,4.68916,0.00468916
-0.0374205,0.000708255,0.708255,4.65794,0.00465794
-0.0364137,0.000703799,0.703799,4.62864,0.00462864
-0.0353911,0.000696586,0.696586,4.5812,0.0045812
-0.0343985,0.000690566,0.690566,4.54161,0.00454161
-0.0333824,0.000693059,0.693059,4.55801,0.00455801
-0.03237123,0.000695101,0.695101,4.57143,0.00457143
-0.031374,0.000690195,0.690195,4.53917,0.00453917
-0.0303868,0.000674309,0.674309,4.4347,0.0044347
-0.0294034,0.000660598,0.660598,4.34452,0.00434452
-0.02838943,0.000646304,0.646304,4.25052,0.00425052
-0.0273797,0.000632593,0.632593,4.16034,0.00416034
-0.0263755,0.000619784,0.619784,4.0761,0.0040761
-0.0253641,0.000602042,0.602042,3.95942,0.00395942
-0.0243556,0.000598144,0.598144,3.93378,0.00393378
-0.0233455,0.000581171,0.581171,3.82216,0.00382216
-0.0223598,0.000559955,0.559955,3.68263,0.00368263
-0.0213808,0.000559796,0.559796,3.68158,0.00368158
-0.0203755,0.000555685,0.555685,3.65455,0.00365455
-0.0193571,0.000553749,0.553749,3.64182,0.00364182
-0.0183861,0.000553778,0.553778,3.64201,0.00364201
-0.0173861,0.000536114,0.536114,3.52583,0.00352583
-0.0163859,0.000526169,0.526169,3.46043,0.00346043
-0.0153927,0.000516648,0.516648,3.39781,0.00339781
-0.0143798,0.000507843,0.507843,3.33991,0.00333991
-0.0133521,0.000498561,0.498561,3.27886,0.00327886
-0.0123347,0.00049994,0.49994,3.28793,0.00328793
-0.0113437,0.000494398,0.494398,3.25148,0.00325148
-0.0103507,0.000487662,0.487662,3.20718,0.00320718
-0.00934396,0.000483631,0.483631,3.18067,0.00318067
-0.00835249,0.000466021,0.466021,3.06486,0.00306486
-0.00738394,0.00045894,0.45894,3.01829,0.00301829
-0.006402229,0.000464881,0.464881,3.05736,0.00305736
-0.00542413,0.000468594,0.468594,3.08178,0.00308178
-0.00441017,0.000468912,0.468912,3.08387,0.00308387
-0.00339471,0.000464722,0.464722,3.05631,0.00305631
-0.00240261,0.000460823,0.460823,3.03067,0.00303067
-0.00139947,0.000462149,0.462149,3.03939,0.00303939
-0.00035855,0.00045963,0.45963,3.02283,0.00302283
0.000615305,0.000456819,0.456819,3.00434,0.00300434
0.00161505,0.000448598,0.448598,2.95027,0.00295027
0.00258778,0.000446925,0.446925,2.93927,0.00293927
0.00355767,0.000443532,0.443532,2.91696,0.00291696
0.00454914,0.000446582,0.446582,2.93701,0.00293701
0.00555037,0.000434648,0.434648,2.85853,0.00285853
0.0065707,0.000431386,0.431386,2.83708,0.00283708
0.00758,0.000423748,0.423748,2.78685,0.00278685
0.008577195,0.00041871,0.41871,2.75371,0.00275371
0.00959477,0.000416508,0.416508,2.73923,0.00273923
0.0106187,0.000411178,0.411178,2.70417,0.00270417
0.01161357,0.000410992,0.410992,2.70295,0.00270295
0.0126084,0.000419664,0.419664,2.75999,0.00275999
0.0135732,0.000405556,0.405556,2.6672,0.0026672
0.0145774,0.000403965,0.403965,2.65673,0.00265673
0.0155881,0.000390758,0.390758,2.56988,0.00256988
0.0165847,0.00038914,0.38914,2.55924,0.00255924
0.01757809,0.00039036,0.39036,2.56726,0.00256726
0.0185683,0.000385613,0.385613,2.53604,0.00253604
0.0195553,0.000389697,0.389697,2.5629,0.0025629
0.02057096,0.000392004,0.392004,2.57807,0.00257807
0.0215497,0.00039036,0.39036,2.56726,0.00256726
0.0225639,0.000394258,0.394258,2.5929,0.0025929
0.0235733,0.000404437,0.404437,2.65984,0.00265984
0.0245646,0.000411443,0.411443,2.70592,0.00270592
0.0255767,0.000415182,0.415182,2.73051,0.00273051
0.0266144,0.000420248,0.420248,2.76382,0.00276382
0.027605,0.000415686,0.415686,2.73382,0.00273382
0.0285935,0.000417304,0.417304,2.74446,0.00274446
0.02959987,0.000404521,0.404521,2.6604,0.0026604
0.0305869,0.000401445,0.401445,2.64016,0.00264016
0.0315968,0.000394497,0.394497,2.59447,0.00259447
0.032612,0.000391633,0.391633,2.57563,0.00257563
0.0336016,0.000407757,0.407757,2.68167,0.00268167
0.0345865,0.000420142,0.420142,2.76313,0.00276313
0.0355822,0.000423854,0.423854,2.78754,0.00278754
0.0365803,0.00043311,0.43311,2.84841,0.00284841
0.0375809,0.000437698,0.437698,2.87859,0.00287859
0.0385965,0.000430007,0.430007,2.82801,0.00282801
0.0395901,0.000432367,0.432367,2.84353,0.00284353
0.0405916,0.000439607,0.439607,2.89114,0.00289114
0.041589,0.000456341,0.456341,3.0012,0.0030012
0.0425749,0.000456341,0.456341,3.0012,0.0030012
0.04353689,0.000469363,0.469363,3.08683,0.00308683
0.0445331,0.000463118,0.463118,3.04577,0.00304577
0.0455203,0.000480581,0.480581,3.16061,0.00316061
0.0465525,0.000489571,0.489571,3.21974,0.00321974
0.0475554,0.000500471,0.500471,3.29142,0.00329142
0.0485575,0.00048562,0.48562,3.19375,0.00319375
0.0495439,0.000477398,0.477398,3.13968,0.00313968
0.0505782,0.0004626,0.4626,3.04236,0.00304236
0.0515714,0.00045605,0.45605,2.99928,0.00299928
0.0525828,0.000436478,0.436478,2.87056,0.00287056
0.053597,0.000425499,0.425499,2.79836,0.00279836
0.0545899,0.000416349,0.416349,2.73818,0.00273818
0.055599,0.000415103,0.415103,2.72999,0.00272999
0.0565669,0.000407147,0.407147,2.67766,0.00267766
0.0575741,0.000402267,0.402267,2.64557,0.00264557
0.0585914,0.000392614,0.392614,2.58208,0.00258208
0.0595763,0.000394842,0.394842,2.59674,0.00259674
0.0605863,0.000390121,0.390121,2.56569,0.00256569
0.0615992,0.0003867,0.3867,2.54319,0.00254319
0.06259,0.000393993,0.393993,2.59115,0.00259115
0.06359271,0.000392853,0.392853,2.58365,0.00258365
0.0645821,0.000393012,0.393012,2.5847,0.0025847
0.0655744,0.000387243,0.387243,2.54676,0.00254676
0.0665639,0.000379858,0.379858,2.49819,0.00249819
0.0675397,0.000376569,0.376569,2.47657,0.00247657
0.0685358,0.000355619,0.355619,2.33878,0.00233878
0.06955,0.000357873,0.357873,2.3536,0.0023536
0.0705529,0.00036201,0.36201,2.38081,0.00238081
0.071582,0.000366359,0.366359,2.40942,0.00240942
0.07257048,0.000354027,0.354027,2.32831,0.00232831
0.07357043,0.000350659,0.350659,2.30616,0.00230616
0.0745859,0.000354425,0.354425,2.33093,0.00233093
0.075579,0.000368375,0.368375,2.42267,0.00242267
0.076596,0.00036498,0.36498,2.40035,0.00240035
0.0775747,0.000360817,0.360817,2.37296,0.00237296
0.0785673,0.00034989,0.34989,2.30111,0.00230111
0.0795604,0.0003553,0.3553,2.33669,0.00233669
0.0805472,0.000347769,0.347769,2.28715,0.00228715
0.08153487,0.000333607,0.333607,2.19402,0.00219402
0.0824949,0.000320161,0.320161,2.10559,0.00210559
0.0835185,0.000324192,0.324192,2.1321,0.0021321
0.0845235,0.000321567,0.321567,2.11483,0.00211483
0.0855317,0.000324352,0.324352,2.13315,0.00213315
0.0865297,0.000340271,0.340271,2.23784,0.00223784
0.0875238,0.0003409,0.3409,2.24198,0.00224198
0.0885395,0.00033069,0.33069,2.17483,0.00217483
0.0895517,0.000332546,0.332546,2.18704,0.00218704
0.0905638,0.000325704,0.325704,2.14204,0.00214204
0.0915603,0.000330929,0.330929,2.1764,0.0021764
0.0925605,0.000334244,0.334244,2.1982,0.0021982
0.0935789,0.000328621,0.328621,2.16123,0.00216123
0.0945683,0.000323742,0.323742,2.12914,0.00212914
0.0955551,0.000329549,0.329549,2.16733,0.00216733
0.096537,0.000330266,0.330266,2.17204,0.00217204
0.0975406,0.000335357,0.335357,2.20553,0.00220553
0.0985526,0.000350368,0.350368,2.30425,0.00230425
0.0995619,0.000368348,0.368348,2.4225,0.0024225
0.10056,0.000362222,0.362222,2.38221,0.00238221
0.1015404,0.000348405,0.348405,2.29134,0.00229134
0.102543,0.000329311,0.329311,2.16576,0.00216576
0.103542,0.000323689,0.323689,2.12879,0.00212879
0.104529,0.000331724,0.331724,2.18163,0.00218163
0.105519,0.000319366,0.319366,2.10036,0.00210036
0.10651,0.000318968,0.318968,2.09774,0.00209774
0.107482,0.000324056,0.324056,2.1312,0.0021312
0.10848,0.000319021,0.319021,2.09809,0.00209809
0.109513,0.000315176,0.315176,2.0728,0.0020728
0.110518,0.000311489,0.311489,2.04856,0.00204856
0.111502,0.000317854,0.317854,2.09042,0.00209042
0.112487,0.000323476,0.323476,2.12739,0.00212739
0.113499,0.000322336,0.322336,2.11989,0.00211989
0.114501,0.000321249,0.321249,2.11274,0.00211274
0.115511,0.00031552,0.31552,2.07507,0.00207507
0.116526,0.000315467,0.315467,2.07472,0.00207472
0.117535,0.000305257,0.305257,2.00757,0.00200757
0.118513,0.000297089,0.297089,1.95385,0.00195385
0.119514,0.000289823,0.289823,1.90606,0.00190606
0.120508,0.000286057,0.286057,1.8813,0.0018813
0.121502,0.000272001,0.272001,1.78886,0.00178886
0.122485,0.000277491,0.277491,1.82496,0.00182496
0.123491,0.000295896,0.295896,1.946,0.001946
0.1244955,0.000305682,0.305682,2.01036,0.00201036
0.125488,0.000325333,0.325333,2.1396,0.0021396
0.1264867,0.000334721,0.334721,2.20134,0.00220134
0.127487,0.000333024,0.333024,2.19018,0.00219018
0.128497,0.000325268,0.325268,2.13918,0.00213918
0.129486,0.000315494,0.315494,2.07489,0.00207489
0.13049,0.000312709,0.312709,2.05658,0.00205658
0.131479,0.000306291,0.306291,2.01437,0.00201437
0.132491,0.000301942,0.301942,1.98577,0.00198577
0.133515,0.000285553,0.285553,1.87798,0.00187798
0.134511,0.000287913,0.287913,1.8935,0.0018935
0.135525,0.000286985,0.286985,1.8874,0.0018874
0.136518,0.000280541,0.280541,1.84502,0.00184502
0.137529,0.000276403,0.276403,1.81781,0.00181781
0.138516,0.000268103,0.268103,1.76322,0.00176322
0.139519,0.000268898,0.268898,1.76845,0.00176845
0.140519,0.000270198,0.270198,1.777,0.001777
0.141507,0.000275634,0.275634,1.81275,0.00181275
0.1425,0.000277597,0.277597,1.82566,0.00182566
0.143466,0.000284625,0.284625,1.87188,0.00187188
0.144461,0.000287224,0.287224,1.88897,0.00188897
0.145449,0.000289584,0.289584,1.90449,0.00190449
0.146423,0.000297593,0.297593,1.95716,0.00195716
0.147445,0.00029563,0.29563,1.94426,0.00194426
0.148419,0.000297287,0.297287,1.95515,0.00195515
0.149423,0.000287754,0.287754,1.89246,0.00189246
0.1504267,0.000277199,0.277199,1.82304,0.00182304
0.151423,0.000279453,0.279453,1.83787,0.00183787
0.152448,0.0002746,0.2746,1.80595,0.00180595
0.153468,0.000271709,0.271709,1.78694,0.00178694
0.154478,0.000262534,0.262534,1.72659,0.00172659
0.1554857,0.000266379,0.266379,1.75188,0.00175188
0.156503,0.00026134,0.26134,1.71874,0.00171874
0.157519,0.000265451,0.265451,1.74578,0.00174578
0.158524,0.0002842,0.2842,1.86909,0.00186909
0.15952,0.000294278,0.294278,1.93536,0.00193536
0.160528,0.000292925,0.292925,1.92647,0.00192647
0.161512,0.000284227,0.284227,1.86926,0.00186926
0.162479,0.000287515,0.287515,1.89089,0.00189089
0.163479,0.00028314,0.28314,1.86211,0.00186211
0.164455,0.000277676,0.277676,1.82618,0.00182618
0.165473,0.000268527,0.268527,1.76601,0.00176601
0.166475,0.000274786,0.274786,1.80717,0.00180717
0.167498,0.000282954,0.282954,1.86089,0.00186089
0.168483,0.00029563,0.29563,1.94426,0.00194426
0.1694776,0.00029789,0.29789,1.95912,0.00195912
0.170466,0.000299555,0.299555,1.97007,0.00197007
0.171454,0.000291785,0.291785,1.91897,0.00191897
0.172437,0.000287834,0.287834,1.89298,0.00189298
0.173443,0.000281946,0.281946,1.85426,0.00185426
0.174463,0.000273195,0.273195,1.79671,0.00179671
0.175444,0.000257495,0.257495,1.69345,0.00169345
0.176452,0.000245614,0.245614,1.61532,0.00161532
0.177447,0.000235881,0.235881,1.55131,0.00155131
0.178439,0.000244606,0.244606,1.60869,0.00160869
0.179444,0.000251422,0.251422,1.65351,0.00165351
0.180448,0.000251316,0.251316,1.65281,0.00165281
0.18144,0.000248372,0.248372,1.63345,0.00163345
0.182431,0.000251554,0.251554,1.65438,0.00165438
0.183447,0.000246542,0.246542,1.62142,0.00162142
0.184447,0.000240124,0.240124,1.57921,0.00157921
0.185436,0.000245959,0.245959,1.61758,0.00161758
0.186462,0.000243731,0.243731,1.60293,0.00160293
0.187467,0.000237552,0.237552,1.56229,0.00156229
0.18846,0.000237552,0.237552,1.56229,0.00156229
0.189458,0.000236464,0.236464,1.55514,0.00155514
0.190462,0.000239704,0.239704,1.57645,0.00157645
0.191446,0.000232195,0.232195,1.52706,0.00152706
0.192442,0.00022522,0.22522,1.48119,0.00148119
0.193429,0.000236358,0.236358,1.55445,0.00155445
0.194446,0.000236411,0.236411,1.55479,0.00155479
0.195454,0.000234051,0.234051,1.53927,0.00153927
0.196025,0.000216177,0.216177,1.42172,0.00142172
0.196568,0.00023063,0.23063,1.51677,0.00151677
0.197575,0.000214479,0.214479,1.41056,0.00141056
0.198418,0.000135689,0.135689,0.892376,0.000892376
0.198995,-2.23705e-05,-0.0223705,-0.147123,-0.000147123
0.199153,-0.000231534,-0.231534,-1.52272,-0.00152272
0.198837,-0.000429095,-0.429095,-2.82201,-0.00282201
0.198178,-0.000573296,-0.573296,-3.77037,-0.00377037
0.19725,-0.00066837,-0.66837,-4.39564,-0.00439564
0.196173,-0.000709874,-0.709874,-4.66859,-0.00466859
0.195038,-0.000726051,-0.726051,-4.77499,-0.00477499
0.19391,-0.000722259,-0.722259,-4.75005,-0.00475005
0.192831,-0.000700062,-0.700062,-4.60406,-0.00460406
0.191799,-0.000690302,-0.690302,-4.53988,-0.00453988
0.190797,-0.000693671,-0.693671,-4.56203,-0.00456203
0.189782,-0.000698842,-0.698842,-4.59604,-0.00459604
0.1888,-0.000703987,-0.703987,-4.62988,-0.00462988
0.187808,-0.000705445,-0.705445,-4.63947,-0.00463947
0.186817,-0.000708973,-0.708973,-4.66266,-0.00466266
0.185831,-0.000713932,-0.713932,-4.69528,-0.00469528
0.1848391,-0.000715921,-0.715921,-4.70836,-0.00470836
0.183879,-0.000712685,-0.712685,-4.68708,-0.00468708
0.1828655,-0.000718679,-0.718679,-4.7265,-0.0047265
0.181867,-0.00072926,-0.72926,-4.79609,-0.00479609
0.180867,-0.000729181,-0.729181,-4.79557,-0.00479557
0.179891,-0.000734485,-0.734485,-4.83045,-0.00483045
0.178893,-0.000735466,-0.735466,-4.8369,-0.0048369
0.177909,-0.000744383,-0.744383,-4.89555,-0.00489555
0.176928,-0.00074321,-0.74321,-4.88783,-0.00488783
0.175908,-0.000748143,-0.748143,-4.92027,-0.00492027
0.1749121,-0.000758247,-0.758247,-4.98672,-0.00498672
0.1739,-0.000764161,-0.764161,-5.02562,-0.00502562
0.172897,-0.000769306,-0.769306,-5.05945,-0.00505945
0.171873,-0.000777102,-0.777102,-5.11073,-0.00511073
0.170885,-0.000791635,-0.791635,-5.20631,-0.00520631
0.169908,-0.000794287,-0.794287,-5.22375,-0.00522375
0.168927,-0.000783892,-0.783892,-5.15538,-0.00515538
0.167929,-0.000785377,-0.785377,-5.16515,-0.00516515
0.166922,-0.000789832,-0.789832,-5.19445,-0.00519445
0.165921,-0.000791529,-0.791529,-5.20561,-0.00520561
0.164918,-0.000797814,-0.797814,-5.24695,-0.00524695
0.16389,-0.00080882,-0.80882,-5.31933,-0.00531933
0.162854,-0.000815662,-0.815662,-5.36433,-0.00536433
0.161871,-0.000815185,-0.815185,-5.36119,-0.00536119
0.16088,-0.000814283,-0.814283,-5.35526,-0.00535526
0.1598862,-0.000817625,-0.817625,-5.37723,-0.00537723
0.1589,-0.000823274,-0.823274,-5.41438,-0.00541438
0.157888,-0.000829002,-0.829002,-5.45206,-0.00545206
0.156904,-0.000832938,-0.832938,-5.47794,-0.00547794
0.1559269,-0.000837038,-0.837038,-5.5049,-0.0055049
0.154919,-0.000841281,-0.841281,-5.53281,-0.00553281
0.153927,-0.000849131,-0.849131,-5.58444,-0.00558444
0.152927,-0.000832158,-0.832158,-5.47281,-0.00547281
0.151944,-0.000832556,-0.832556,-5.47543,-0.00547543
0.150937,-0.000827649,-0.827649,-5.44316,-0.00544316
0.149941,-0.000833139,-0.833139,-5.47926,-0.00547926
0.148918,-0.000825342,-0.825342,-5.42799,-0.00542799
0.14792,-0.00081964,-0.81964,-5.39049,-0.00539049
0.1469084,-0.000811181,-0.811181,-5.33485,-0.00533485
0.145906,-0.000806646,-0.806646,-5.30503,-0.00530503
0.144913,-0.000816909,-0.816909,-5.37252,-0.00537252
0.143925,-0.000827437,-0.827437,-5.44177,-0.00544177
0.1429268,-0.000834757,-0.834757,-5.4899,-0.0054899
0.141933,-0.000848176,-0.848176,-5.57816,-0.00557816
0.1409182,-0.000856477,-0.856477,-5.63275,-0.00563275
0.139914,-0.000865202,-0.865202,-5.69013,-0.00569013
0.138914,-0.000881591,-0.881591,-5.79792,-0.00579792
0.137928,-0.000864194,-0.864194,-5.6835,-0.0056835
0.136943,-0.000860772,-0.860772,-5.661,-0.005661
0.135977,-0.000875014,-0.875014,-5.75466,-0.00575466
0.1349802,-0.000873821,-0.873821,-5.74681,-0.00574681
0.133985,-0.000880451,-0.880451,-5.79042,-0.00579042
0.132964,-0.000887797,-0.887797,-5.83873,-0.00583873
0.131947,-0.00089989,-0.89989,-5.91826,-0.00591826
0.13096,-0.00090766,-0.90766,-5.96936,-0.00596936
0.12998,-0.00090827,-0.90827,-5.97338,-0.00597338
0.128951,-0.000901773,-0.901773,-5.93064,-0.00593064
0.127953,-0.000886603,-0.886603,-5.83088,-0.00583088
0.126963,-0.000878515,-0.878515,-5.77768,-0.00577768
0.125947,-0.00088366,-0.88366,-5.81152,-0.00581152
0.1249541,-0.000885118,-0.885118,-5.82111,-0.00582111
0.123948,-0.000892703,-0.892703,-5.871,-0.005871
0.122954,-0.000902781,-0.902781,-5.93727,-0.00593727
0.121929,-0.000904398,-0.904398,-5.94791,-0.00594791
0.120943,-0.000909914,-0.909914,-5.98419,-0.00598419
0.119935,-0.000923281,-0.923281,-6.07209,-0.00607209
0.118926,-0.000932828,-0.932828,-6.13488,-0.00613488
0.117923,-0.000935745,-0.935745,-6.15407,-0.00615407
0.116897,-0.000924925,-0.924925,-6.08291,-0.00608291
0.115904,-0.000926743,-0.926743,-6.09487,-0.00609487
0.1149142,-0.000920045,-0.920045,-6.05081,-0.00605081
0.113917,-0.000910684,-0.910684,-5.98925,-0.00598925
0.1129058,-0.000914476,-0.914476,-6.01419,-0.00601419
0.111942,-0.000920204,-0.920204,-6.05186,-0.00605186
0.110947,-0.000924368,-0.924368,-6.07924,-0.00607924
0.10996,-0.000936487,-0.936487,-6.15895,-0.00615895
0.108985,-0.000950119,-0.950119,-6.2486,-0.0062486
0.107956,-0.000955608,-0.955608,-6.2847,-0.0062847
0.106953,-0.000954282,-0.954282,-6.27598,-0.00627598
0.105969,-0.000952479,-0.952479,-6.26412,-0.00626412
0.104987,-0.000959189,-0.959189,-6.30825,-0.00630825
0.103989,-0.000960621,-0.960621,-6.31767,-0.00631767
0.1029788,-0.000944629,-0.944629,-6.2125,-0.0062125
0.10197,-0.000950888,-0.950888,-6.25366,-0.00625366
0.100986,-0.0009511,-0.9511,-6.25505,-0.00625505
0.0999878,-0.000944284,-0.944284,-6.21023,-0.00621023
0.0990125,-0.000926436,-0.926436,-6.09285,-0.00609285
0.0980076,-0.000925376,-0.925376,-6.08587,-0.00608587
0.0970177,-0.000920947,-0.920947,-6.05674,-0.00605674
0.0960086,-0.000931104,-0.931104,-6.12355,-0.00612355
0.0950249,-0.000940589,-0.940589,-6.18593,-0.00618593
0.0940369,-0.000956934,-0.956934,-6.29342,-0.00629342
0.0930335,-0.000961761,-0.961761,-6.32517,-0.00632517
0.0920232,-0.000960037,-0.960037,-6.31383,-0.00631383
0.0910126,-0.000956855,-0.956855,-6.2929,-0.0062929
0.0900124,-0.000967993,-0.967993,-6.36615,-0.00636615
0.0890057,-0.000967092,-0.967092,-6.36022,-0.00636022
0.0880166,-0.000973987,-0.973987,-6.40557,-0.00640557
0.0869748,-0.000987857,-0.987857,-6.49679,-0.00649679
0.0859489,-0.000994938,-0.994938,-6.54336,-0.00654336
0.0849649,-0.00100194,-1.00194,-6.5894,-0.0065894
0.0839787,-0.000993452,-0.993452,-6.53359,-0.00653359
0.0829956,-0.00100109,-1.00109,-6.58382,-0.00658382
0.0820177,-0.00100247,-1.00247,-6.59289,-0.00659289
0.0810302,-0.00100303,-1.00303,-6.59655,-0.00659655
0.0800504,-0.000998226,-0.998226,-6.56498,-0.00656498
0.0790399,-0.000994991,-0.994991,-6.54371,-0.00654371
0.07803905,-0.00100011,-1.00011,-6.57737,-0.00657737
0.077027,-0.00100032,-1.00032,-6.57876,-0.00657876
0.0760224,-0.000996741,-0.996741,-6.55522,-0.00655522
0.0750256,-0.000992524,-0.992524,-6.52749,-0.00652749
0.0740372,-0.000988701,-0.988701,-6.50234,-0.00650234
0.0730335,-0.0010047,-1.0047,-6.60754,-0.00660754
0.0720397,-0.000993506,-0.993506,-6.53394,-0.00653394
0.0710296,-0.00100515,-1.00515,-6.61051,-0.00661051
0.070016,-0.00100467,-1.00467,-6.60737,-0.00660737
0.0690195,-0.00101957,-1.01957,-6.70539,-0.00670539
0.0680166,-0.00102772,-1.02772,-6.75893,-0.00675893
0.067016,-0.00102955,-1.02955,-6.77096,-0.00677096
0.06602066,-0.00103254,-1.03254,-6.79067,-0.00679067
0.0650158,-0.00103183,-1.03183,-6.78596,-0.00678596
0.0640307,-0.00102939,-1.02939,-6.76992,-0.00676992
0.0630146,-0.00103355,-1.03355,-6.7973,-0.0067973
0.061999,-0.00105299,-1.05299,-6.92515,-0.00692515
0.0609761,-0.00104591,-1.04591,-6.87858,-0.00687858
0.0599764,-0.00104344,-1.04344,-6.86236,-0.00686236
0.0590055,-0.00105143,-1.05143,-6.91486,-0.00691486
0.0580244,-0.00105349,-1.05349,-6.92846,-0.00692846
0.0570346,-0.0010637,-1.0637,-6.99561,-0.00699561
0.0560245,-0.00107097,-1.07097,-7.0434,-0.0070434
0.0550264,-0.00107901,-1.07901,-7.09624,-0.00709624
0.0540178,-0.00106763,-1.06763,-7.02142,-0.00702142
0.0530032,-0.00106678,-1.06678,-7.01584,-0.00701584
0.0520143,-0.00105983,-1.05983,-6.97014,-0.00697014
0.0510005,-0.0010667,-1.0667,-7.01532,-0.00701532
0.0500139,-0.00107794,-1.07794,-7.08927,-0.00708927
0.0490182,-0.00106705,-1.06705,-7.01758,-0.00701758
0.0480218,-0.00106508,-1.06508,-7.00468,-0.00700468
0.0470367,-0.0010671,-1.0671,-7.01793,-0.00701793
0.0460595,-0.00106296,-1.06296,-6.99072,-0.00699072
0.04504298,-0.00106962,-1.06962,-7.0345,-0.0070345
0.0440532,-0.00107407,-1.07407,-7.0638,-0.0070638
0.0430284,-0.0010811,-1.0811,-7.11002,-0.00711002
0.0420418,-0.00108418,-1.08418,-7.13025,-0.00713025
0.0410332,-0.00108397,-1.08397,-7.12886,-0.00712886
0.0400302,-0.00108765,-1.08765,-7.1531,-0.0071531
0.03903814,-0.00109325,-1.09325,-7.1899,-0.0071899
0.0380479,-0.0010938,-1.0938,-7.19357,-0.00719357
0.0370658,-0.00110189,-1.10189,-7.24676,-0.00724676
0.0360652,-0.00111303,-1.11303,-7.32002,-0.00732002
0.0350583,-0.00111062,-1.11062,-7.30414,-0.00730414
0.0340642,-0.00110974,-1.10974,-7.29839,-0.00729839
0.0330951,-0.00110807,-1.10807,-7.2874,-0.0072874
0.0321044,-0.00110407,-1.10407,-7.26108,-0.00726108
0.031117,-0.00111327,-1.11327,-7.32159,-0.00732159
0.0300965,-0.0011312,-1.1312,-7.43949,-0.00743949
0.029084,-0.00113303,-1.13303,-7.45152,-0.00745152
0.0280982,-0.00113597,-1.13597,-7.47088,-0.00747088
0.0271025,-0.00113565,-1.13565,-7.46879,-0.00746879
0.0260892,-0.00112388,-1.12388,-7.39135,-0.00739135
0.025068,-0.00112531,-1.12531,-7.40077,-0.00740077
0.0240458,-0.00112136,-1.12136,-7.37478,-0.00737478
0.0230751,-0.00111727,-1.11727,-7.34792,-0.00734792
0.0220514,-0.0011243,-1.1243,-7.39414,-0.00739414
0.0210767,-0.00113899,-1.13899,-7.49077,-0.00749077
0.0200447,-0.00115477,-1.15477,-7.59454,-0.00759454
0.0190538,-0.00117159,-1.17159,-7.70512,-0.00770512
0.01804178,-0.00117793,-1.17793,-7.7468,-0.0077468
0.0170478,-0.00118445,-1.18445,-7.78971,-0.00778971
0.0160584,-0.00119018,-1.19018,-7.82738,-0.00782738
0.0150725,-0.00119126,-1.19126,-7.83453,-0.00783453
0.0140857,-0.00118986,-1.18986,-7.82529,-0.00782529
0.013112,-0.00118254,-1.18254,-7.77715,-0.00777715
0.0120974,-0.00116687,-1.16687,-7.67407,-0.00767407
0.0110998,-0.00116529,-1.16529,-7.66372,-0.00766372
0.0101045,-0.00116188,-1.16188,-7.64128,-0.00764128
0.009097971,-0.00116636,-1.16636,-7.67076,-0.00767076
0.00807722,-0.00116734,-1.16734,-7.67721,-0.00767721
0.00707174,-0.00117291,-1.17291,-7.71384,-0.00771384
0.00606563,-0.00117278,-1.17278,-7.71297,-0.00771297
0.00507331,-0.0011914,-1.1914,-7.8354,-0.0078354
0.004090541,-0.00120763,-1.20763,-7.94215,-0.00794215
0.00307615,-0.00120622,-1.20622,-7.9329,-0.0079329
0.00207322,-0.00121344,-1.21344,-7.98034,-0.00798034
0.001078571,-0.00122423,-1.22423,-8.05133,-0.00805133
9.28314e-05,-0.00122537,-1.22537,-8.05883,-0.00805883
-0.000923468,-0.00122776,-1.22776,-8.07452,-0.00807452
-0.00191239,-0.00122776,-1.22776,-8.07452,-0.00807452
-0.00292169,-0.00122548,-1.22548,-8.05953,-0.00805953
-0.003915491,-0.00121969,-1.21969,-8.0215,-0.0080215
-0.00490314,-0.00121503,-1.21503,-7.99081,-0.00799081
-0.00588718,-0.00121842,-1.21842,-8.01313,-0.00801313
-0.00689117,-0.00122099,-1.22099,-8.03005,-0.00803005
-0.00789219,-0.00123783,-1.23783,-8.1408,-0.0081408
-0.00891507,-0.00124714,-1.24714,-8.20202,-0.00820202
-0.00992276,-0.00125754,-1.25754,-8.27041,-0.00827041
-0.0109375,-0.0012673,-1.2673,-8.33457,-0.00833457
-0.011926,-0.00126682,-1.26682,-8.33143,-0.00833143
-0.0129357,-0.00126146,-1.26146,-8.2962,-0.0082962
-0.0139238,-0.00124849,-1.24849,-8.21091,-0.00821091
-0.0149333,-0.00123786,-1.23786,-8.14098,-0.00814098
-0.0159301,-0.001236,-1.236,-8.12877,-0.00812877
-0.0169273,-0.00124385,-1.24385,-8.18039,-0.00818039
-0.0179315,-0.00125194,-1.25194,-8.23359,-0.00823359
-0.0189079,-0.00126419,-1.26419,-8.31417,-0.00831417
-0.0199344,-0.00128146,-1.28146,-8.42771,-0.00842771
-0.0209158,-0.00128435,-1.28435,-8.44672,-0.00844672
-0.0218984,-0.00128223,-1.28223,-8.43277,-0.00843277
-0.0228935,-0.00128225,-1.28225,-8.43294,-0.00843294
-0.0239055,-0.00128297,-1.28297,-8.43765,-0.00843765
-0.024915,-0.00129358,-1.29358,-8.50742,-0.00850742
-0.025919,-0.0013036,-1.3036,-8.57334,-0.00857334
-0.0269186,-0.00130199,-1.30199,-8.56271,-0.00856271
-0.0279211,-0.00130207,-1.30207,-8.56323,-0.00856323
-0.0289138,-0.00129392,-1.29392,-8.50968,-0.00850968
-0.0298998,-0.00131143,-1.31143,-8.6248,-0.0086248
-0.03088291,-0.0013227,-1.3227,-8.69895,-0.00869895
-0.031895,-0.00134052,-1.34052,-8.81613,-0.00881613
-0.0328963,-0.00134508,-1.34508,-8.84613,-0.00884613
-0.0338892,-0.0013555,-1.3555,-8.91467,-0.00891467
-0.0349221,-0.00136516,-1.36516,-8.97816,-0.00897816
-0.0358927,-0.00137828,-1.37828,-9.06449,-0.00906449
-0.0369114,-0.00138876,-1.38876,-9.13338,-0.00913338
-0.0378946,-0.00140528,-1.40528,-9.24204,-0.00924204
-0.0389032,-0.00141828,-1.41828,-9.3275,-0.0093275
-0.0398949,-0.00143228,-1.43228,-9.41959,-0.00941959
-0.0408955,-0.00144705,-1.44705,-9.51674,-0.00951674
-0.041912,-0.00145066,-1.45066,-9.54046,-0.00954046
-0.0429353,-0.00145652,-1.45652,-9.57901,-0.00957901
-0.0439106,-0.00146763,-1.46763,-9.65209,-0.00965209
-0.0449318,-0.0014663,-1.4663,-9.64337,-0.00964337
-0.0459089,-0.00146166,-1.46166,-9.61284,-0.00961284
-0.0468954,-0.00146312,-1.46312,-9.62244,-0.00962244
-0.047896,-0.00146683,-1.46683,-9.64685,-0.00964685
-0.0488814,-0.00147813,-1.47813,-9.72115,-0.00972115
-0.0498714,-0.00148649,-1.48649,-9.77609,-0.00977609
-0.0508484,-0.00149251,-1.49251,-9.81569,-0.00981569
-0.0518666,-0.00149459,-1.49459,-9.82941,-0.00982941
-0.052839,-0.00150791,-1.50791,-9.91702,-0.00991702
-0.0538593,-0.00152168,-1.52168,-10.0075,-0.0100075
-0.0548661,-0.00152284,-1.52284,-10.0152,-0.0100152
-0.0558488,-0.00152693,-1.52693,-10.0421,-0.0100421
-0.0568615,-0.00153351,-1.53351,-10.0853,-0.0100853
-0.057877,-0.00154454,-1.54454,-10.1579,-0.0101579
-0.0588837,-0.00155493,-1.55493,-10.2263,-0.0102263
-0.059869,-0.00156342,-1.56342,-10.2821,-0.0102821
-0.06089402,-0.00158021,-1.58021,-10.3925,-0.0103925
-0.061912,-0.00159644,-1.59644,-10.4992,-0.0104992
-0.0628948,-0.00160715,-1.60715,-10.5697,-0.0105697
-0.0638856,-0.00162152,-1.62152,-10.6642,-0.0106642
-0.0648849,-0.00163372,-1.63372,-10.7444,-0.0107444
-0.0658622,-0.00164974,-1.64974,-10.8498,-0.0108498
-0.066849,-0.00166093,-1.66093,-10.9234,-0.0109234
-0.0678704,-0.00167255,-1.67255,-10.9998,-0.0109998
-0.068868,-0.00167279,-1.67279,-11.0013,-0.0110013
-0.0698862,-0.00168366,-1.68366,-11.0729,-0.0110729
-0.0708718,-0.00170846,-1.70846,-11.2359,-0.0112359
-0.0718781,-0.00172066,-1.72066,-11.3162,-0.0113162
-0.0728777,-0.00174957,-1.74957,-11.5063,-0.0115063
-0.0738744,-0.00176805,-1.76805,-11.6278,-0.0116278
-0.0748688,-0.00178571,-1.78571,-11.744,-0.011744
-0.0758885,-0.00181398,-1.81398,-11.9299,-0.0119299
-0.076883,-0.00183201,-1.83201,-12.0485,-0.0120485
-0.0779039,-0.00186081,-1.86081,-12.2379,-0.0122379
-0.0788986,-0.00187994,-1.87994,-12.3637,-0.0123637
-0.0799151,-0.00188312,-1.88312,-12.3846,-0.0123846
-0.0808781,-0.00188869,-1.88869,-12.4212,-0.0124212
-0.0818768,-0.00190699,-1.90699,-12.5416,-0.0125416
-0.0828708,-0.00193335,-1.93335,-12.7149,-0.0127149
-0.0838856,-0.00195284,-1.95284,-12.8431,-0.0128431
-0.0848565,-0.00197159,-1.97159,-12.9664,-0.0129664
-0.0858399,-0.00199734,-1.99734,-13.1358,-0.0131358
-0.0868607,-0.00200975,-2.00975,-13.2174,-0.0132174
-0.0878449,-0.00203659,-2.03659,-13.3939,-0.0133939
-0.0888515,-0.00206011,-2.06011,-13.5486,-0.0135486
-0.0898281,-0.00208934,-2.08934,-13.7408,-0.0137408
-0.0908043,-0.00210894,-2.10894,-13.8697,-0.0138697
-0.0918115,-0.00213575,-2.13575,-14.0461,-0.0140461
-0.09282627,-0.00216192,-2.16192,-14.2182,-0.0142182
-0.09382835,-0.00217951,-2.17951,-14.3338,-0.0143338
-0.0948207,-0.00220547,-2.20547,-14.5046,-0.0145046
-0.0958323,-0.00222406,-2.22406,-14.6269,-0.0146269
-0.0968384,-0.00225973,-2.25973,-14.8614,-0.0148614
-0.0978602,-0.00229153,-2.29153,-15.0706,-0.0150706
-0.0988625,-0.00233001,-2.33001,-15.3236,-0.0153236
-0.09985356,-0.00235852,-2.35852,-15.5111,-0.0155111
-0.100824,-0.00238721,-2.38721,-15.6998,-0.0156998
-0.10181,-0.00241609,-2.41609,-15.8898,-0.0158898
-0.10278,-0.00244455,-2.44455,-16.0769,-0.0160769
-0.103765,-0.00247754,-2.47754,-16.2939,-0.0162939
-0.104768,-0.00252068,-2.52068,-16.5777,-0.0165777
-0.105771,-0.00256121,-2.56121,-16.8442,-0.0168442
-0.106813,-0.00259171,-2.59171,-17.0447,-0.0170447
-0.107834,-0.00261998,-2.61998,-17.2307,-0.0172307
-0.108823,-0.0026497,-2.6497,-17.4262,-0.0174262
-0.109851,-0.00269092,-2.69092,-17.6972,-0.0176972
-0.11085,-0.00272563,-2.72563,-17.9255,-0.0179255
-0.111826,-0.00276973,-2.76973,-18.2156,-0.0182156
-0.112795,-0.00280975,-2.80975,-18.4788,-0.0184788
-0.113784,-0.00285484,-2.85484,-18.7753,-0.0187753
-0.11475,-0.0029063,-2.9063,-19.1137,-0.0191137
-0.115744,-0.00296033,-2.96033,-19.4691,-0.0194691
-0.116766,-0.00302313,-3.02313,-19.8821,-0.0198821
-0.117774,-0.00307978,-3.07978,-20.2546,-0.0202546
-0.118781,-0.00312001,-3.12001,-20.5192,-0.0205192
-0.119784,-0.00316756,-3.16756,-20.8319,-0.0208319
-0.120786,-0.00320108,-3.20108,-21.0524,-0.0210524
-0.12181,-0.00324277,-3.24277,-21.3266,-0.0213266
-0.122819,-0.00328735,-3.28735,-21.6198,-0.0216198
-0.123797,-0.003341,-3.341,-21.9726,-0.0219726
-0.124808,-0.00339242,-3.39242,-22.3108,-0.0223108
-0.125805,-0.00345477,-3.45477,-22.7208,-0.0227208
-0.126801,-0.00350466,-3.50466,-23.0489,-0.0230489
-0.127799,-0.00355873,-3.55873,-23.4045,-0.0234045
-0.128773,-0.00361286,-3.61286,-23.7605,-0.0237605
-0.12977,-0.00366298,-3.66298,-24.0901,-0.0240901
-0.130761,-0.00372225,-3.72225,-24.4799,-0.0244799
-0.131767,-0.00378049,-3.78049,-24.863,-0.024863
-0.132744,-0.003844,-3.844,-25.2807,-0.0252807
-0.133739,-0.00390747,-3.90747,-25.698,-0.025698
-0.134765,-0.00396155,-3.96155,-26.0538,-0.0260538
-0.135751,-0.00401339,-4.01339,-26.3947,-0.0263947
-0.136755,-0.00407064,-4.07064,-26.7712,-0.0267712
-0.137749,-0.00412559,-4.12559,-27.1326,-0.0271326
-0.1387573,-0.00417222,-4.17222,-27.4392,-0.0274392
-0.139711,-0.00421719,-4.21719,-27.735,-0.027735
-0.1407101,-0.00427209,-4.27209,-28.096,-0.028096
-0.141706,-0.00432205,-4.32205,-28.4246,-0.0284246
-0.142697,-0.00436918,-4.36918,-28.7346,-0.0287346
-0.143693,-0.00442365,-4.42365,-29.0928,-0.0290928
-0.1447,-0.00449359,-4.49359,-29.5527,-0.0295527
-0.145688,-0.00455734,-4.55734,-29.972,-0.029972
-0.146701,-0.00462332,-4.62332,-30.406,-0.030406
-0.147687,-0.00466459,-4.66459,-30.6774,-0.0306774
-0.148722,-0.00470529,-4.70529,-30.9451,-0.0309451
-0.149743,-0.00474091,-4.74091,-31.1793,-0.0311793
-0.150742,-0.00477921,-4.77921,-31.4312,-0.0314312
-0.151736,-0.00480281,-4.80281,-31.5864,-0.0315864
-0.152733,-0.00484251,-4.84251,-31.8475,-0.0318475
-0.153743,-0.00488107,-4.88107,-32.1011,-0.0321011
-0.154731,-0.00489998,-4.89998,-32.2254,-0.0322254
-0.155727,-0.00491243,-4.91243,-32.3073,-0.0323073
-0.156723,-0.00490966,-4.90966,-32.2891,-0.0322891
-0.1577149,-0.00490064,-4.90064,-32.2298,-0.0322298
-0.1587223,-0.00490114,-4.90114,-32.2331,-0.0322331
-0.159728,-0.00488576,-4.88576,-32.132,-0.032132
-0.160731,-0.0048589,-4.8589,-31.9553,-0.0319553
-0.161762,-0.00482182,-4.82182,-31.7114,-0.0317114
-0.162746,-0.00478668,-4.78668,-31.4803,-0.0314803
-0.163763,-0.00472662,-4.72662,-31.0853,-0.0310853
-0.1647647,-0.00466331,-4.66331,-30.669,-0.030669
-0.165776,-0.00459587,-4.59587,-30.2255,-0.0302255
-0.166781,-0.00452979,-4.52979,-29.7908,-0.0297908
-0.167788,-0.00444885,-4.44885,-29.2585,-0.0292585
-0.168817,-0.00436518,-4.36518,-28.7082,-0.0287082
-0.169807,-0.00427978,-4.27978,-28.1466,-0.0281466
-0.170789,-0.00417588,-4.17588,-27.4633,-0.0274633
-0.1717869,-0.00407672,-4.07672,-26.8111,-0.0268111
-0.172768,-0.00398318,-3.98318,-26.196,-0.026196
-0.173769,-0.0038771,-3.8771,-25.4983,-0.0254983
-0.174764,-0.00378269,-3.78269,-24.8774,-0.0248774
-0.175761,-0.00368515,-3.68515,-24.2359,-0.0242359
-0.176786,-0.00360204,-3.60204,-23.6894,-0.0236894
-0.177803,-0.00351404,-3.51404,-23.1106,-0.0231106
-0.178799,-0.00342287,-3.42287,-22.511,-0.022511
-0.179804,-0.00334376,-3.34376,-21.9907,-0.0219907
-0.180819,-0.00325364,-3.25364,-21.3981,-0.0213981
-0.181815,-0.00316955,-3.16955,-20.845,-0.020845
-0.182817,-0.00308532,-3.08532,-20.2911,-0.0202911
-0.183833,-0.00300563,-3.00563,-19.767,-0.019767
-0.18485,-0.0029354,-2.9354,-19.3051,-0.0193051
-0.185854,-0.00285969,-2.85969,-18.8072,-0.0188072
-0.186825,-0.00279275,-2.79275,-18.367,-0.018367
-0.187839,-0.00272831,-2.72831,-17.9431,-0.0179431
-0.1888157,-0.00265278,-2.65278,-17.4464,-0.0174464
-0.189812,-0.00257773,-2.57773,-16.9528,-0.0169528
-0.190802,-0.00251671,-2.51671,-16.5515,-0.0165515
-0.191782,-0.00246155,-2.46155,-16.1887,-0.0161887
-0.1927595,-0.00242728,-2.42728,-15.9634,-0.0159634
-0.193746,-0.00238639,-2.38639,-15.6944,-0.0156944
-0.194743,-0.00233794,-2.33794,-15.3758,-0.0153758
-0.195287,-0.00230667,-2.30667,-15.1702,-0.0151702
-0.1952948,-0.00232719,-2.32719,-15.3051,-0.0153051