File: literature/rawdata/engstfeld_2018_polycrystalline_17743/engstfeld_2018_polycrystalline_17743_f4b_3.csv
E,<I>,I (raw),j,j
V vs. RHE,mA,\g(m)A,\g(m)A/cm\+(-2),mA/cm\+(-2)
-0.1953903,-0.0029511,-2.9511,-19.4084,-0.0194084
-0.196945,-0.00284152,-2.84152,-18.6877,-0.0186877
-0.198431,-0.00228124,-2.28124,-15.0029,-0.0150029
-0.198275,-0.00127706,-1.27706,-8.39876,-0.00839876
-0.196652,-0.000531554,-0.531554,-3.49584,-0.00349584
-0.194416,-0.000227582,-0.227582,-1.49673,-0.00149673
-0.192203,-0.000123916,-0.123916,-0.814949,-0.000814949
-0.190151,-5.17016e-05,-0.0517016,-0.340024,-0.000340024
-0.188143,4.3346e-05,0.043346,0.285071,0.000285071
-0.18622,0.000191301,0.191301,1.25812,0.00125812
-0.184221,0.00036742,0.36742,2.41639,0.00241639
-0.182236,0.000487105,0.487105,3.20352,0.00320352
-0.180281,0.000597852,0.597852,3.93186,0.00393186
-0.178215,0.000755142,0.755142,4.9663,0.0049663
-0.176204,0.000879627,0.879627,5.785,0.005785
-0.174262,0.00102355,1.02355,6.73153,0.00673153
-0.172288,0.00116183,1.16183,7.64092,0.00764092
-0.170303,0.001318,1.318,8.66804,0.00866804
-0.168281,0.00146537,1.46537,9.6372,0.0096372
-0.16633,0.00162179,1.62179,10.6659,0.0106659
-0.164342,0.00178348,1.78348,11.7293,0.0117293
-0.162328,0.00192616,1.92616,12.6677,0.0126677
-0.160313,0.00206592,2.06592,13.5868,0.0135868
-0.158303,0.00219526,2.19526,14.4374,0.0144374
-0.156298,0.00230786,2.30786,15.178,0.015178
-0.15427,0.0024119,2.4119,15.8622,0.0158622
-0.152287,0.00248324,2.48324,16.3314,0.0163314
-0.150299,0.00254996,2.54996,16.7702,0.0167702
-0.1483157,0.00261255,2.61255,17.1818,0.0171818
-0.146322,0.00267861,2.67861,17.6163,0.0176163
-0.144302,0.00272197,2.72197,17.9014,0.0179014
-0.142281,0.0027653,2.7653,18.1864,0.0181864
-0.140301,0.00278342,2.78342,18.3056,0.0183056
-0.138308,0.0027871,2.7871,18.3298,0.0183298
-0.136267,0.00278336,2.78336,18.3052,0.0183052
-0.134265,0.00278697,2.78697,18.3289,0.0183289
-0.132273,0.00279389,2.79389,18.3744,0.0183744
-0.130314,0.00279052,2.79052,18.3523,0.0183523
-0.128322,0.00274963,2.74963,18.0834,0.0180834
-0.126334,0.00271733,2.71733,17.8709,0.0178709
-0.124349,0.00268418,2.68418,17.6529,0.0176529
-0.122358,0.00267166,2.67166,17.5706,0.0175706
-0.120359,0.00263154,2.63154,17.3067,0.0173067
-0.118342,0.00260979,2.60979,17.1637,0.0171637
-0.116291,0.00253755,2.53755,16.6886,0.0166886
-0.114306,0.0024786,2.4786,16.3009,0.0163009
-0.112296,0.00242911,2.42911,15.9754,0.0159754
-0.110287,0.00239031,2.39031,15.7202,0.0157202
-0.108295,0.00232271,2.32271,15.2757,0.0152757
-0.106333,0.00225247,2.25247,14.8137,0.0148137
-0.104348,0.00218266,2.18266,14.3546,0.0143546
-0.1023265,0.00212416,2.12416,13.9698,0.0139698
-0.100317,0.00206634,2.06634,13.5896,0.0135896
-0.0982662,0.00199957,1.99957,13.1504,0.0131504
-0.0962429,0.00193061,1.93061,12.697,0.012697
-0.09422604,0.00185209,1.85209,12.1805,0.0121805
-0.0922272,0.0017791,1.7791,11.7005,0.0117005
-0.09025231,0.00170071,1.70071,11.185,0.011185
-0.0882997,0.00163266,1.63266,10.7374,0.0107374
-0.086334,0.00157867,1.57867,10.3823,0.0103823
-0.0843264,0.0015456,1.5456,10.1648,0.0101648
-0.0823108,0.00150621,1.50621,9.90584,0.00990584
-0.0803181,0.00144063,1.44063,9.47452,0.00947452
-0.0783003,0.00136948,1.36948,9.00657,0.00900657
-0.0762941,0.00130514,1.30514,8.58345,0.00858345
-0.0743037,0.00126252,1.26252,8.30317,0.00830317
-0.0723178,0.0012207,1.2207,8.02812,0.00802812
-0.0702867,0.00116045,1.16045,7.63185,0.00763185
-0.06830968,0.00110932,1.10932,7.29559,0.00729559
-0.066334,0.00105986,1.05986,6.97031,0.00697031
-0.0643388,0.00101753,1.01753,6.69193,0.00669193
-0.0623239,0.000992443,0.992443,6.52695,0.00652695
-0.06031552,0.00094903,0.94903,6.24144,0.00624144
-0.05834616,0.000905219,0.905219,5.95331,0.00595331
-0.0563976,0.000870159,0.870159,5.72273,0.00572273
-0.0543782,0.00084051,0.84051,5.52774,0.00552774
-0.052349,0.000816881,0.816881,5.37234,0.00537234
-0.050369,0.000776729,0.776729,5.10828,0.00510828
-0.0483771,0.000727084,0.727084,4.78178,0.00478178
-0.0463586,0.00070547,0.70547,4.63963,0.00463963
-0.0443973,0.000691759,0.691759,4.54946,0.00454946
-0.0423687,0.000665611,0.665611,4.37749,0.00437749
-0.0403439,0.000634476,0.634476,4.17273,0.00417273
-0.0383638,0.00061326,0.61326,4.0332,0.0040332
-0.0363479,0.000591302,0.591302,3.88878,0.00388878
-0.0343724,0.000593423,0.593423,3.90274,0.00390274
-0.0323381,0.000572207,0.572207,3.76321,0.00376321
-0.0303161,0.000535636,0.535636,3.52269,0.00352269
-0.0283011,0.000510071,0.510071,3.35456,0.00335456
-0.026336,0.000505244,0.505244,3.32281,0.00332281
-0.02436498,0.000491799,0.491799,3.23439,0.00323439
-0.022361,0.000481408,0.481408,3.16605,0.00316605
-0.0203545,0.000464271,0.464271,3.05335,0.00305335
-0.0183563,0.000443055,0.443055,2.91382,0.00291382
-0.016336,0.000423165,0.423165,2.78301,0.00278301
-0.0143365,0.000402188,0.402188,2.64505,0.00264505
-0.0123629,0.000376967,0.376967,2.47918,0.00247918
-0.01038933,0.00036026,0.36026,2.3693,0.0023693
-0.00837965,0.000344268,0.344268,2.26413,0.00226413
-0.00636997,0.000346257,0.346257,2.27721,0.00227721
-0.004379394,0.000348564,0.348564,2.29239,0.00229239
-0.00239433,0.000334137,0.334137,2.19751,0.00219751
-0.000404389,0.000318517,0.318517,2.09478,0.00209478
0.00159489,0.000297885,0.297885,1.95908,0.00195908
0.00364595,0.000271577,0.271577,1.78607,0.00178607
0.00569128,0.000263966,0.263966,1.73601,0.00173601
0.00768101,0.000247258,0.247258,1.62613,0.00162613
0.0095988,0.000244765,0.244765,1.60973,0.00160973
0.0115179,0.000225167,0.225167,1.48084,0.00148084
0.0135165,0.000215487,0.215487,1.41718,0.00141718
0.0155875,0.000209308,0.209308,1.37655,0.00137655
0.0176212,0.000210289,0.210289,1.383,0.001383
0.01964285,0.00021088,0.21088,1.38688,0.00138688
0.0216732,0.000201644,0.201644,1.32614,0.00132614
0.023636,0.000190107,0.190107,1.25027,0.00125027
0.02562041,0.000178677,0.178677,1.1751,0.0011751
0.027605,0.000174249,0.174249,1.14597,0.00114597
0.0295844,0.000163853,0.163853,1.0776,0.0010776
0.0316034,0.000163985,0.163985,1.07847,0.00107847
0.0336029,0.000154226,0.154226,1.01429,0.00101429
0.0355693,0.000156666,0.156666,1.03034,0.00103034
0.0376065,0.00015229,0.15229,1.00156,0.00100156
0.039612,0.000128767,0.128767,0.846854,0.000846854
0.041562,0.000115136,0.115136,0.757206,0.000757206
0.0435225,0.000120413,0.120413,0.791914,0.000791914
0.0455669,0.000134734,0.134734,0.886097,0.000886097
0.0476163,0.000129483,0.129483,0.851563,0.000851563
0.0496464,0.000124418,0.124418,0.818251,0.000818251
0.0516183,0.000112324,0.112324,0.738718,0.000738718
0.0535664,0.000115374,0.115374,0.758776,0.000758776
0.0555661,0.000120625,0.120625,0.79331,0.00079331
0.0575894,0.000105615,0.105615,0.694592,0.000694592
0.0596391,9.01802e-05,0.0901802,0.593084,0.000593084
0.0616092,8.81814e-05,0.0881814,0.579939,0.000579939
0.0635861,7.68142e-05,0.0768142,0.50518,0.00050518
0.0655784,9.48743e-05,0.0948743,0.623955,0.000623955
0.0675828,8.50619e-05,0.0850619,0.559422,0.000559422
0.0695912,0.000102671,0.102671,0.675232,0.000675232
0.0715601,8.82973e-05,0.0882973,0.580701,0.000580701
0.0735138,8.83238e-05,0.0883238,0.580875,0.000580875
0.0755207,7.71855e-05,0.0771855,0.507622,0.000507622
0.0775609,6.99985e-05,0.0699985,0.460356,0.000460356
0.0795823,7.99966e-05,0.0799966,0.526109,0.000526109
0.0815886,6.9919e-05,0.069919,0.459833,0.000459833
0.0835494,5.68977e-05,0.0568977,0.374196,0.000374196
0.0855406,4.91273e-05,0.0491273,0.323093,0.000323093
0.0875645,4.865e-05,0.04865,0.319954,0.000319954
0.0895409,6.45619e-05,0.0645619,0.424601,0.000424601
0.09154357,6.92295e-05,0.0692295,0.455298,0.000455298
0.09356875,5.41131e-05,0.0541131,0.355883,0.000355883
0.0956187,3.13589e-05,0.0313589,0.206237,0.000206237
0.0975987,2.55511e-05,0.0255511,0.16804,0.00016804
0.09957061,4.12244e-05,0.0412244,0.271118,0.000271118
0.1015455,6.17508e-05,0.0617508,0.406114,0.000406114
0.103544,5.65681e-05,0.0565681,0.372028,0.000372028
0.1055778,3.08816e-05,0.0308816,0.203097,0.000203097
0.107524,2.73279e-05,0.0273279,0.179726,0.000179726
0.109528,4.20465e-05,0.0420465,0.276525,0.000276525
0.111535,4.74831e-05,0.0474831,0.31228,0.00031228
0.113534,4.61571e-05,0.0461571,0.303559,0.000303559
0.115504,6.84339e-05,0.0684339,0.450066,0.000450066
0.117538,7.75832e-05,0.0775832,0.510238,0.000510238
0.119561,6.44293e-05,0.0644293,0.423729,0.000423729
0.121576,5.45109e-05,0.0545109,0.358499,0.000358499
0.123537,3.82541e-05,0.0382541,0.251584,0.000251584
0.125504,2.97147e-05,0.0297147,0.195423,0.000195423
0.127466,1.29276e-05,0.0129276,0.0850201,8.50201e-05
0.129473,1.42005e-05,0.0142005,0.0933918,9.33918e-05
0.1315001,2.66914e-05,0.0266914,0.17554,0.00017554
0.133555,3.70872e-05,0.0370872,0.24391,0.00024391
0.13553,4.22056e-05,0.0422056,0.277571,0.000277571
0.137507,1.60039e-05,0.0160039,0.105252,0.000105252
0.139525,7.54897e-07,0.000754897,0.00496469,4.96469e-06
0.141532,2.67179e-05,0.0267179,0.175715,0.000175715
0.143504,3.3401e-05,0.033401,0.219666,0.000219666
0.145483,3.05633e-05,0.0305633,0.201004,0.000201004
0.147497,2.71423e-05,0.0271423,0.178505,0.000178505
0.149483,4.51759e-05,0.0451759,0.297106,0.000297106
0.15147,3.61325e-05,0.0361325,0.237631,0.000237631
0.153481,3.10937e-05,0.0310937,0.204493,0.000204493
0.155509,1.65077e-05,0.0165077,0.108566,0.000108566
0.1575007,2.64262e-05,0.0264262,0.173796,0.000173796
0.159495,2.49146e-05,0.0249146,0.163854,0.000163854
0.161498,1.04347e-05,0.0104347,0.0686252,6.86252e-05
0.163499,1.60039e-05,0.0160039,0.105252,0.000105252
0.165516,3.38211e-05,0.0338211,0.222429,0.000222429
0.167517,4.97107e-05,0.0497107,0.32693,0.00032693
0.169538,4.21261e-05,0.0421261,0.277048,0.000277048
0.17153,3.75116e-05,0.0375116,0.2467,0.0002467
0.173523,4.1357e-05,0.041357,0.27199,0.00027199
0.175469,4.31338e-05,0.0431338,0.283676,0.000283676
0.177491,2.69566e-05,0.0269566,0.177284,0.000177284
0.179517,2.07244e-05,0.0207244,0.136297,0.000136297
0.181492,1.43331e-05,0.0143331,0.0942639,9.42639e-05
0.18349,1.03286e-05,0.0103286,0.0679276,6.79276e-05
0.185428,1.16016e-05,0.0116016,0.0762994,7.62994e-05
0.187423,1.84437e-05,0.0184437,0.121298,0.000121298
0.18939,1.63486e-05,0.0163486,0.107519,0.000107519
0.191372,2.48085e-05,0.0248085,0.163157,0.000163157
0.193437,2.60549e-05,0.0260549,0.171354,0.000171354
0.195505,2.2793e-05,0.022793,0.149901,0.000149901
0.1975525,2.10692e-05,0.0210692,0.138565,0.000138565
0.199513,2.05388e-05,0.0205388,0.135076,0.000135076
0.20146,2.10957e-05,0.0210957,0.138739,0.000138739
0.20344,2.86539e-05,0.0286539,0.188447,0.000188447
0.205431,3.64773e-05,0.0364773,0.239898,0.000239898
0.207455,3.14623e-05,0.0314623,0.206916,0.000206916
0.209441,1.89741e-05,0.0189741,0.124786,0.000124786
0.211446,-2.26338e-07,-0.000226338,-0.00148854,-1.48854e-06
0.213426,1.01695e-05,0.0101695,0.0668811,6.68811e-05
0.21546,7.70312e-06,0.00770312,0.0506607,5.06607e-05
0.217453,1.12568e-05,0.0112568,0.0740321,7.40321e-05
0.219421,1.26624e-05,0.0126624,0.0832759,8.32759e-05
0.22144,9.58603e-06,0.00958603,0.0630439,6.30439e-05
0.2234506,2.52063e-05,0.0252063,0.165773,0.000165773
0.22542,2.18383e-05,0.0218383,0.143623,0.000143623
0.227427,4.71383e-05,0.0471383,0.310012,0.000310012
0.229398,5.81972e-05,0.0581972,0.382742,0.000382742
0.231449,5.91784e-05,0.0591784,0.389196,0.000389196
0.233459,4.28686e-05,0.0428686,0.281932,0.000281932
0.235487,3.24197e-05,0.0324197,0.213213,0.000213213
0.237433,2.96882e-05,0.0296882,0.195249,0.000195249
0.239391,9.85125e-06,0.00985125,0.0647882,6.47882e-05
0.241415,6.27105e-06,0.00627105,0.0412425,4.12425e-05
0.243399,2.16792e-05,0.0216792,0.142576,0.000142576
0.245408,4.55736e-05,0.0455736,0.299722,0.000299722
0.247397,5.57838e-05,0.0557838,0.366871,0.000366871
0.249354,6.63516e-05,0.0663516,0.436371,0.000436371
0.251397,6.09817e-05,0.0609817,0.401056,0.000401056
0.253417,3.97658e-05,0.0397658,0.261526,0.000261526
0.255413,3.43557e-05,0.0343557,0.225945,0.000225945
0.257427,3.11998e-05,0.0311998,0.20519,0.00020519
0.259404,4.09061e-05,0.0409061,0.269025,0.000269025
0.2613641,5.56247e-05,0.0556247,0.365824,0.000365824
0.263347,6.47476e-05,0.0647476,0.425822,0.000425822
0.265366,6.72139e-05,0.0672139,0.442043,0.000442043
0.267396,7.10593e-05,0.0710593,0.467332,0.000467332
0.269381,6.73996e-05,0.0673996,0.443263,0.000443263
0.271359,7.20936e-05,0.0720936,0.474135,0.000474135
0.273383,7.63368e-05,0.0763368,0.50204,0.00050204
0.275433,7.59655e-05,0.0759655,0.499599,0.000499599
0.27747,7.75302e-05,0.0775302,0.509889,0.000509889
0.279422,8.90929e-05,0.0890929,0.585933,0.000585933
0.281381,9.44499e-05,0.0944499,0.621164,0.000621164
0.283391,8.95172e-05,0.0895172,0.588724,0.000588724
0.285396,8.09248e-05,0.0809248,0.532214,0.000532214
0.287369,0.000101823,0.101823,0.669651,0.000669651
0.289379,0.000103812,0.103812,0.682732,0.000682732
0.291399,0.000108548,0.108548,0.713883,0.000713883
0.2934508,0.000104024,0.104024,0.684127,0.000684127
0.295464,0.000109169,0.109169,0.717963,0.000717963
0.297426,0.000108585,0.108585,0.714126,0.000714126
0.299397,0.000117337,0.117337,0.771682,0.000771682
0.3014,0.000142159,0.142159,0.934933,0.000934933
0.303366,0.00013248,0.13248,0.871272,0.000871272
0.305409,0.000131074,0.131074,0.862028,0.000862028
0.307373,0.000110176,0.110176,0.724591,0.000724591
0.309375,0.000126937,0.126937,0.83482,0.00083482
0.311388,0.000141655,0.141655,0.931619,0.000931619
0.313407,0.000158575,0.158575,1.04289,0.00104289
0.315421,0.00015237,0.15237,1.00208,0.00100208
0.317405,0.000158734,0.158734,1.04394,0.00104394
0.319382,0.000151945,0.151945,0.999291,0.000999291
0.321383,0.000156692,0.156692,1.03051,0.00103051
0.323363,0.000182178,0.182178,1.19812,0.00119812
0.325398,0.000195199,0.195199,1.28376,0.00128376
0.327392,0.000211907,0.211907,1.39364,0.00139364
0.329359,0.000233839,0.233839,1.53788,0.00153788
0.331352,0.000236411,0.236411,1.55479,0.00155479
0.333377,0.000247894,0.247894,1.63031,0.00163031
0.335372,0.000238188,0.238188,1.56648,0.00156648
0.337383,0.000250467,0.250467,1.64723,0.00164723
0.339331,0.000257256,0.257256,1.69188,0.00169188
0.341289,0.000274971,0.274971,1.80839,0.00180839
0.343312,0.000291944,0.291944,1.92001,0.00192001
0.345308,0.000306371,0.306371,2.0149,0.0020149
0.347266,0.000322044,0.322044,2.11797,0.00211797
0.349279,0.000326659,0.326659,2.14832,0.00214832
0.351327,0.000343499,0.343499,2.25907,0.00225907
0.353368,0.000345276,0.345276,2.27076,0.00227076
0.355372,0.000358218,0.358218,2.35587,0.00235587
0.357343,0.000396725,0.396725,2.60912,0.00260912
0.359345,0.000438679,0.438679,2.88504,0.00288504
0.36134,0.000464112,0.464112,3.0523,0.0030523
0.363332,0.000480422,0.480422,3.15957,0.00315957
0.365323,0.000502115,0.502115,3.30223,0.00330223
0.367295,0.000513412,0.513412,3.37653,0.00337653
0.369271,0.000528078,0.528078,3.47298,0.00347298
0.3713001,0.000577962,0.577962,3.80105,0.00380105
0.3732996,0.000596579,0.596579,3.92349,0.00392349
0.375295,0.000624846,0.624846,4.10939,0.00410939
0.377316,0.000666247,0.666247,4.38167,0.00438167
0.37932,0.000695366,0.695366,4.57318,0.00457318
0.381325,0.000728516,0.728516,4.79119,0.00479119
0.383307,0.000736127,0.736127,4.84125,0.00484125
0.38529,0.000767872,0.767872,5.05002,0.00505002
0.387288,0.000787841,0.787841,5.18136,0.00518136
0.3893331,0.000831148,0.831148,5.46617,0.00546617
0.391331,0.000862468,0.862468,5.67215,0.00567215
0.393328,0.000913307,0.913307,6.0065,0.0060065
0.395287,0.000954217,0.954217,6.27555,0.00627555
0.397296,0.00100061,1.00061,6.58067,0.00658067
0.399287,0.00106405,1.06405,6.99786,0.00699786
0.401219,0.00113143,1.13143,7.44105,0.00744105
0.403252,0.00118174,1.18174,7.77191,0.00777191
0.405271,0.00120863,1.20863,7.94876,0.00794876
0.407242,0.00124149,1.24149,8.16486,0.00816486
0.40923,0.0013005,1.3005,8.55293,0.00855293
0.411229,0.00134484,1.34484,8.84454,0.00884454
0.413252,0.00137788,1.37788,9.06186,0.00906186
0.415261,0.00141605,1.41605,9.31284,0.00931284
0.417277,0.00144872,1.44872,9.52772,0.00952772
0.4192363,0.00149046,1.49046,9.80224,0.00980224
0.421209,0.00153889,1.53889,10.1207,0.0101207
0.423182,0.00156694,1.56694,10.3052,0.0103052
0.425204,0.00157068,1.57068,10.3298,0.0103298
0.427238,0.00159137,1.59137,10.4659,0.0104659
0.429258,0.00162457,1.62457,10.6842,0.0106842
0.431248,0.00167159,1.67159,10.9935,0.0109935
0.433238,0.00169766,1.69766,11.1649,0.0111649
0.435235,0.00173824,1.73824,11.4318,0.0114318
0.43726,0.00177048,1.77048,11.6438,0.0116438
0.439266,0.00179297,1.79297,11.7918,0.0117918
0.441267,0.00184395,1.84395,12.127,0.012127
0.443233,0.00194422,1.94422,12.7864,0.0127864
0.445173,0.00202741,2.02741,13.3336,0.0133336
0.44722,0.00213052,2.13052,14.0117,0.0140117
0.449221,0.00221406,2.21406,14.5611,0.0145611
0.451226,0.00234475,2.34475,15.4206,0.0154206
0.453203,0.00247822,2.47822,16.2984,0.0162984
0.455168,0.00267301,2.67301,17.5795,0.0175795
0.4571681,0.00290201,2.90201,19.0855,0.0190855
0.459133,0.00317061,3.17061,20.852,0.020852
0.46113,0.00353605,3.53605,23.2554,0.0232554
0.463112,0.003956,3.956,26.0172,0.0260172
0.465063,0.00447526,4.47526,29.4322,0.0294322
0.46707,0.00509211,5.09211,33.489,0.033489
0.469037,0.00589421,5.89421,38.7642,0.0387642
0.470918,0.00702627,7.02627,46.2093,0.0462093
0.472737,0.00877194,8.77194,57.69,0.05769
0.47454,0.0113193,11.3193,74.4432,0.0744432
0.476432,0.0143673,14.3673,94.489,0.094489
0.478504,0.01712,17.12,112.592,0.112592
0.480918,0.0182917,18.2917,120.298,0.120298
0.4834677,0.0166229,16.6229,109.323,0.109323
0.485736,0.0127881,12.7881,84.103,0.084103
0.4876819,0.00940097,9.40097,61.8269,0.0618269
0.489507,0.0075625,7.5625,49.7359,0.0497359
0.491465,0.00651053,6.51053,42.8175,0.0428175
0.493397,0.00568735,5.68735,37.4037,0.0374037
0.495369,0.00503313,5.03313,33.1011,0.0331011
0.496041,0.00484847,4.84847,31.8867,0.0318867
0.496673,0.00469206,4.69206,30.858,0.030858
0.498557,0.00407414,4.07414,26.7942,0.0267942
0.499414,0.00239418,2.39418,15.7457,0.0157457
0.498417,0.00042945,0.42945,2.82434,0.00282434
0.4963364,-0.000717379,-0.717379,-4.71795,-0.00471795
0.494041,-0.00119721,-1.19721,-7.8736,-0.0078736
0.491919,-0.00144676,-1.44676,-9.51482,-0.00951482
0.489904,-0.00170305,-1.70305,-11.2003,-0.0112003
0.487934,-0.00204354,-2.04354,-13.4396,-0.0134396
0.4859634,-0.00243977,-2.43977,-16.0455,-0.0160455
0.484003,-0.00292901,-2.92901,-19.2631,-0.0192631
0.482109,-0.00350699,-3.50699,-23.0642,-0.0230642
0.480162,-0.00420221,-4.20221,-27.6365,-0.0276365
0.4781954,-0.00512744,-5.12744,-33.7214,-0.0337214
0.476235,-0.00634341,-6.34341,-41.7184,-0.0417184
0.474292,-0.0078569,-7.8569,-51.6721,-0.0516721
0.472411,-0.00964398,-9.64398,-63.4251,-0.0634251
0.470446,-0.0113277,-11.3277,-74.4983,-0.0744983
0.468276,-0.0123403,-12.3403,-81.1581,-0.0811581
0.466124,-0.0123155,-12.3155,-80.995,-0.080995
0.464084,-0.0116623,-11.6623,-76.6987,-0.0766987
0.462162,-0.0112461,-11.2461,-73.9615,-0.0739615
0.460177,-0.0113504,-11.3504,-74.6475,-0.0746475
0.45814,-0.0115371,-11.5371,-75.8757,-0.0758757
0.456016,-0.011176,-11.176,-73.5009,-0.0735009
0.453891,-0.010143,-10.143,-66.7066,-0.0667066
0.45183,-0.00878937,-8.78937,-57.8046,-0.0578046
0.44982,-0.00747037,-7.47037,-49.13,-0.04913
0.447843,-0.00639162,-6.39162,-42.0354,-0.0420354
0.44583,-0.00549272,-5.49272,-36.1237,-0.0361237
0.443852,-0.00480785,-4.80785,-31.6195,-0.0316195
0.441913,-0.00426962,-4.26962,-28.0798,-0.0280798
0.439929,-0.00384965,-3.84965,-25.3178,-0.0253178
0.437973,-0.00353844,-3.53844,-23.2711,-0.0232711
0.435983,-0.00327841,-3.27841,-21.561,-0.021561
0.433986,-0.00306681,-3.06681,-20.1693,-0.0201693
0.431987,-0.00290812,-2.90812,-19.1257,-0.0191257
0.429981,-0.00278522,-2.78522,-18.3174,-0.0183174
0.427967,-0.00266991,-2.66991,-17.5591,-0.0175591
0.425966,-0.0025658,-2.5658,-16.8743,-0.0168743
0.423978,-0.00248509,-2.48509,-16.3436,-0.0163436
0.421986,-0.00244563,-2.44563,-16.0841,-0.0160841
0.4199903,-0.0024031,-2.4031,-15.8043,-0.0158043
0.418017,-0.00235432,-2.35432,-15.4836,-0.0154836
0.416022,-0.00232627,-2.32627,-15.299,-0.015299
0.41402,-0.00232117,-2.32117,-15.2656,-0.0152656
0.412046,-0.0023085,-2.3085,-15.1822,-0.0151822
0.410036,-0.0023002,-2.3002,-15.1276,-0.0151276
0.408018,-0.00226811,-2.26811,-14.9166,-0.0149166
0.4060204,-0.00221666,-2.21666,-14.5782,-0.0145782
0.404047,-0.002173,-2.173,-14.291,-0.014291
0.4020282,-0.00214195,-2.14195,-14.0869,-0.0140869
0.39999,-0.00209225,-2.09225,-13.76,-0.01376
0.397987,-0.00201328,-2.01328,-13.2406,-0.0132406
0.396009,-0.00192568,-1.92568,-12.6645,-0.0126645
0.393988,-0.00183368,-1.83368,-12.0595,-0.0120595
0.391988,-0.00177444,-1.77444,-11.6699,-0.0116699
0.389986,-0.00171527,-1.71527,-11.2808,-0.0112808
0.388003,-0.00166245,-1.66245,-10.9333,-0.0109333
0.385982,-0.00161959,-1.61959,-10.6515,-0.0106515
0.383999,-0.00156241,-1.56241,-10.2754,-0.0102754
0.381968,-0.00151149,-1.51149,-9.94056,-0.00994056
0.3800011,-0.00148611,-1.48611,-9.77365,-0.00977365
0.378043,-0.00144732,-1.44732,-9.51849,-0.00951849
0.376053,-0.00140772,-1.40772,-9.25809,-0.00925809
0.374069,-0.00137065,-1.37065,-9.01426,-0.00901426
0.372048,-0.00133304,-1.33304,-8.76694,-0.00876694
0.370016,-0.00131758,-1.31758,-8.66526,-0.00866526
0.368007,-0.00130665,-1.30665,-8.5934,-0.0085934
0.366028,-0.00128782,-1.28782,-8.46957,-0.00846957
0.364058,-0.00125306,-1.25306,-8.24091,-0.00824091
0.362029,-0.00121773,-1.21773,-8.0086,-0.0080086
0.359999,-0.00119744,-1.19744,-7.87517,-0.00787517
0.357994,-0.00115894,-1.15894,-7.62192,-0.00762192
0.356009,-0.00114427,-1.14427,-7.52547,-0.00752547
0.354035,-0.00110842,-1.10842,-7.28967,-0.00728967
0.352039,-0.00110367,-1.10367,-7.25845,-0.00725845
0.350021,-0.00109826,-1.09826,-7.22287,-0.00722287
0.347993,-0.0010649,-1.0649,-7.00346,-0.00700346
0.346024,-0.00102981,-1.02981,-6.77271,-0.00677271
0.344022,-0.00101645,-1.01645,-6.68481,-0.00668481
0.342053,-0.00101516,-1.01516,-6.67633,-0.00667633
0.34009,-0.00101671,-1.01671,-6.68655,-0.00668655
0.338073,-0.000992206,-0.992206,-6.52539,-0.00652539
0.3360728,-0.000963352,-0.963352,-6.33563,-0.00633563
0.334048,-0.000955211,-0.955211,-6.28209,-0.00628209
0.3320685,-0.000958897,-0.958897,-6.30633,-0.00630633
0.330072,-0.000957385,-0.957385,-6.29639,-0.00629639
0.328084,-0.000962875,-0.962875,-6.33249,-0.00633249
0.326092,-0.000955264,-0.955264,-6.28244,-0.00628244
0.324079,-0.00095171,-0.95171,-6.25906,-0.00625906
0.322061,-0.000941845,-0.941845,-6.19418,-0.00619418
0.320032,-0.000929486,-0.929486,-6.11291,-0.00611291
0.318018,-0.000932642,-0.932642,-6.13366,-0.00613366
0.3160609,-0.000918958,-0.918958,-6.04366,-0.00604366
0.314068,-0.000905141,-0.905141,-5.9528,-0.0059528
0.312083,-0.000907607,-0.907607,-5.96902,-0.00596902
0.310087,-0.000928346,-0.928346,-6.10541,-0.00610541
0.308067,-0.000948581,-0.948581,-6.23848,-0.00623848
0.306066,-0.000927921,-0.927921,-6.10262,-0.00610262
0.3041,-0.000906838,-0.906838,-5.96396,-0.00596396
0.302147,-0.000911002,-0.911002,-5.99134,-0.00599134
0.300211,-0.000909584,-0.909584,-5.98201,-0.00598201
0.298137,-0.000905936,-0.905936,-5.95803,-0.00595803
0.296108,-0.000920549,-0.920549,-6.05413,-0.00605413
0.294122,-0.000919912,-0.919912,-6.04994,-0.00604994
0.292122,-0.000909861,-0.909861,-5.98384,-0.00598384
0.290082,-0.0008848,-0.8848,-5.81902,-0.00581902
0.288069,-0.000874775,-0.874775,-5.75309,-0.00575309
0.286029,-0.000878568,-0.878568,-5.77803,-0.00577803
0.284041,-0.000883394,-0.883394,-5.80978,-0.00580978
0.282115,-0.000886232,-0.886232,-5.82844,-0.00582844
0.280125,-0.000899837,-0.899837,-5.91791,-0.00591791
0.2781221,-0.00090888,-0.90888,-5.97739,-0.00597739
0.276118,-0.00089936,-0.89936,-5.91477,-0.00591477
0.2741259,-0.000908058,-0.908058,-5.97198,-0.00597198
0.272175,-0.000926808,-0.926808,-6.09529,-0.00609529
0.270181,-0.000920735,-0.920735,-6.05535,-0.00605535
0.268125,-0.00090591,-0.90591,-5.95785,-0.00595785
0.266096,-0.000889388,-0.889388,-5.84919,-0.00584919
0.264083,-0.000897291,-0.897291,-5.90117,-0.00590117
0.2621491,-0.000885834,-0.885834,-5.82582,-0.00582582
0.260144,-0.000875332,-0.875332,-5.75675,-0.00575675
0.258171,-0.000869837,-0.869837,-5.72061,-0.00572061
0.256163,-0.000872627,-0.872627,-5.73897,-0.00573897
0.254133,-0.000864804,-0.864804,-5.68751,-0.00568751
0.25215,-0.000867774,-0.867774,-5.70705,-0.00570705
0.250095,-0.000901455,-0.901455,-5.92855,-0.00592855
0.248136,-0.000901508,-0.901508,-5.9289,-0.0059289
0.246132,-0.000911028,-0.911028,-5.99151,-0.00599151
0.244099,-0.000923201,-0.923201,-6.07157,-0.00607157
0.2420899,-0.000896044,-0.896044,-5.89297,-0.00589297
0.240127,-0.000874404,-0.874404,-5.75065,-0.00575065
0.238137,-0.000884376,-0.884376,-5.81623,-0.00581623
0.2361587,-0.000904372,-0.904372,-5.94774,-0.00594774
0.234144,-0.000917287,-0.917287,-6.03268,-0.00603268
0.232091,-0.000916438,-0.916438,-6.02709,-0.00602709
0.230123,-0.000916783,-0.916783,-6.02936,-0.00602936
0.228144,-0.000922034,-0.922034,-6.0639,-0.0060639
0.22612,-0.000923307,-0.923307,-6.07227,-0.00607227
0.224136,-0.000921398,-0.921398,-6.05971,-0.00605971
0.222123,-0.00090652,-0.90652,-5.96186,-0.00596186
0.220095,-0.000896522,-0.896522,-5.89611,-0.00589611
0.21813,-0.000896177,-0.896177,-5.89384,-0.00589384
0.216203,-0.000904816,-0.904816,-5.95066,-0.00595066
0.214204,-0.000898246,-0.898246,-5.90745,-0.00590745
0.212165,-0.000885861,-0.885861,-5.826,-0.005826
0.210139,-0.000874006,-0.874006,-5.74803,-0.00574803
0.208144,-0.000894135,-0.894135,-5.88041,-0.00588041
0.206158,-0.00091551,-0.91551,-6.02099,-0.00602099
0.204146,-0.000946008,-0.946008,-6.22156,-0.00622156
0.2021739,-0.000943383,-0.943383,-6.2043,-0.0062043
0.200137,-0.000943091,-0.943091,-6.20238,-0.00620238
0.198178,-0.000940041,-0.940041,-6.18232,-0.00618232
0.196192,-0.000927471,-0.927471,-6.09965,-0.00609965
0.194189,-0.000927789,-0.927789,-6.10174,-0.00610174
0.1921809,-0.000921557,-0.921557,-6.06076,-0.00606076
0.190189,-0.000924607,-0.924607,-6.08081,-0.00608081
0.188203,-0.000951498,-0.951498,-6.25767,-0.00625767
0.186176,-0.000970035,-0.970035,-6.37958,-0.00637958
0.184221,-0.000955396,-0.955396,-6.28331,-0.00628331
0.18227,-0.000959003,-0.959003,-6.30703,-0.00630703
0.18027,-0.000967383,-0.967383,-6.36214,-0.00636214
0.178249,-0.000960594,-0.960594,-6.31749,-0.00631749
0.176216,-0.000975551,-0.975551,-6.41586,-0.00641586
0.174207,-0.000985605,-0.985605,-6.48198,-0.00648198
0.172194,-0.000986875,-0.986875,-6.49034,-0.00649034
0.170172,-0.000971573,-0.971573,-6.3897,-0.0063897
0.168199,-0.0009777,-0.9777,-6.42999,-0.00642999
0.166171,-0.000979689,-0.979689,-6.44307,-0.00644307
0.164156,-0.00097815,-0.97815,-6.43295,-0.00643295
0.162179,-0.000960276,-0.960276,-6.3154,-0.0063154
0.160249,-0.000976135,-0.976135,-6.4197,-0.0064197
0.158233,-0.00100112,-1.00112,-6.58399,-0.00658399
0.156205,-0.000992471,-0.992471,-6.52714,-0.00652714
0.154208,-0.000994487,-0.994487,-6.54039,-0.00654039
0.152203,-0.00100271,-1.00271,-6.59446,-0.00659446
0.150199,-0.000968789,-0.968789,-6.37139,-0.00637139
0.148222,-0.000959613,-0.959613,-6.31104,-0.00631104
0.1461945,-0.00100159,-1.00159,-6.58713,-0.00658713
0.144225,-0.00101578,-1.01578,-6.68045,-0.00668045
0.14225,-0.00101562,-1.01562,-6.6794,-0.0066794
0.1402614,-0.00100793,-1.00793,-6.62882,-0.00662882
0.138249,-0.00101557,-1.01557,-6.67905,-0.00667905
0.136204,-0.00102143,-1.02143,-6.71759,-0.00671759
0.134195,-0.00100555,-1.00555,-6.61312,-0.00661312
0.13219,-0.000998302,-0.998302,-6.56548,-0.00656548
0.130199,-0.000988201,-0.988201,-6.49906,-0.00649906
0.1282029,-0.000999711,-0.999711,-6.57475,-0.00657475
0.126226,-0.00101286,-1.01286,-6.66126,-0.00666126
0.124282,-0.00101231,-1.01231,-6.6576,-0.0066576
0.122305,-0.00103087,-1.03087,-6.77969,-0.00677969
0.120284,-0.00102329,-1.02329,-6.7298,-0.0067298
0.118242,-0.00104304,-1.04304,-6.85974,-0.00685974
0.116223,-0.00104103,-1.04103,-6.84649,-0.00684649
0.114198,-0.00104092,-1.04092,-6.84579,-0.00684579
0.112217,-0.00104474,-1.04474,-6.8709,-0.0068709
0.110253,-0.00104692,-1.04692,-6.8852,-0.0068852
0.108237,-0.00104883,-1.04883,-6.89776,-0.00689776
0.106208,-0.00105392,-1.05392,-6.93125,-0.00693125
0.104211,-0.00105421,-1.05421,-6.93317,-0.00693317
0.10221,-0.00105644,-1.05644,-6.94782,-0.00694782
0.100273,-0.0010663,-1.0663,-7.0127,-0.0070127
0.09827929,-0.00108558,-1.08558,-7.1395,-0.0071395
0.0962342,-0.00109492,-1.09492,-7.20089,-0.00720089
0.0942578,-0.00107471,-1.07471,-7.06799,-0.00706799
0.0922564,-0.00106272,-1.06272,-6.98916,-0.00698916
0.0902427,-0.0010772,-1.0772,-7.08438,-0.00708438
0.0882173,-0.00109656,-1.09656,-7.21171,-0.00721171
0.0862223,-0.00110478,-1.10478,-7.26577,-0.00726577
0.0842463,-0.00111849,-1.11849,-7.35594,-0.00735594
0.0822691,-0.00112213,-1.12213,-7.37984,-0.00737984
0.0802539,-0.00110876,-1.10876,-7.29194,-0.00729194
0.0782755,-0.00109887,-1.09887,-7.22688,-0.00722688
0.0762838,-0.00111536,-1.11536,-7.33536,-0.00733536
0.0743039,-0.00112595,-1.12595,-7.40495,-0.00740495
0.0722961,-0.00113955,-1.13955,-7.49443,-0.00749443
0.07024689,-0.00112348,-1.12348,-7.38872,-0.00738872
0.0682209,-0.0011055,-1.1055,-7.27048,-0.00727048
0.0662403,-0.00111727,-1.11727,-7.34792,-0.00734792
0.064283,-0.00110173,-1.10173,-7.24572,-0.00724572
0.0623177,-0.00111422,-1.11422,-7.32786,-0.00732786
0.06032078,-0.00113775,-1.13775,-7.48257,-0.00748257
0.058347,-0.00115109,-1.15109,-7.5703,-0.0075703
0.0563254,-0.00112104,-1.12104,-7.37269,-0.00737269
0.0542767,-0.00112327,-1.12327,-7.38734,-0.00738734
0.0522912,-0.00114061,-1.14061,-7.5014,-0.0075014
0.0503189,-0.00115422,-1.15422,-7.59088,-0.00759088
0.048347,-0.00117191,-1.17191,-7.70721,-0.00770721
0.0463235,-0.0011927,-1.1927,-7.84395,-0.00784395
0.04429,-0.00119888,-1.19888,-7.88459,-0.00788459
0.04225,-0.00118639,-1.18639,-7.80244,-0.00780244
0.0402505,-0.00118174,-1.18174,-7.77192,-0.00777192
0.0382814,-0.00118185,-1.18185,-7.77262,-0.00777262
0.0362454,-0.00118416,-1.18416,-7.78779,-0.00778779
0.0342669,-0.00120646,-1.20646,-7.93447,-0.00793447
0.0322833,-0.00121943,-1.21943,-8.01976,-0.00801976
0.0302658,-0.00123282,-1.23282,-8.10784,-0.00810784
0.0282459,-0.00123905,-1.23905,-8.14878,-0.00814878
0.0262927,-0.00123383,-1.23383,-8.11447,-0.00811447
0.02428876,-0.00122465,-1.22465,-8.05412,-0.00805412
0.0222874,-0.00121479,-1.21479,-7.98924,-0.00798924
0.0202792,-0.0012141,-1.2141,-7.9847,-0.0079847
0.0183115,-0.00120214,-1.20214,-7.90604,-0.00790604
0.0163029,-0.00123009,-1.23009,-8.08987,-0.00808987
0.0143129,-0.00123611,-1.23611,-8.12946,-0.00812946
0.01233298,-0.00122826,-1.22826,-8.07784,-0.00807784
0.0103002,-0.00124205,-1.24205,-8.16853,-0.00816853
0.00830768,-0.00125462,-1.25462,-8.2512,-0.0082512
0.00631413,-0.00128825,-1.28825,-8.47236,-0.00847236
0.00431315,-0.00132278,-1.32278,-8.69944,-0.00869944
0.00233934,-0.00131989,-1.31989,-8.68043,-0.00868043
0.000319689,-0.00130843,-1.30843,-8.60509,-0.00860509
-0.00172967,-0.00129175,-1.29175,-8.49538,-0.00849538
-0.003727468,-0.00129703,-1.29703,-8.53009,-0.00853009
-0.00572675,-0.00131673,-1.31673,-8.65968,-0.00865968
-0.00768783,-0.00134023,-1.34023,-8.81421,-0.00881421
-0.00965952,-0.00135044,-1.35044,-8.88136,-0.00888136
-0.0116488,-0.00135028,-1.35028,-8.88031,-0.00888031
-0.0136659,-0.0013547,-1.3547,-8.9094,-0.0089094
-0.0156875,-0.00138136,-1.38136,-9.08472,-0.00908472
-0.0176711,-0.00139677,-1.39677,-9.18606,-0.00918606
-0.0196572,-0.00141448,-1.41448,-9.30256,-0.00930256
-0.0216518,-0.00141753,-1.41753,-9.32262,-0.00932262
-0.02366,-0.00141615,-1.41615,-9.31355,-0.00931355
-0.0256794,-0.00141992,-1.41992,-9.33832,-0.00933832
-0.0277023,-0.00142602,-1.42602,-9.37843,-0.00937843
-0.0297406,-0.0014274,-1.4274,-9.3875,-0.0093875
-0.0316915,-0.00143268,-1.43268,-9.42221,-0.00942221
-0.033653,-0.00146142,-1.46142,-9.61127,-0.00961127
-0.035584,-0.00149367,-1.49367,-9.82336,-0.00982336
-0.0376117,-0.00151969,-1.51969,-9.99446,-0.00999446
-0.0396303,-0.00152478,-1.52478,-10.0279,-0.0100279
-0.0416932,-0.00152645,-1.52645,-10.0389,-0.0100389
-0.0437277,-0.00153282,-1.53282,-10.0808,-0.0100808
-0.0457363,-0.00156772,-1.56772,-10.3103,-0.0103103
-0.0477375,-0.00159702,-1.59702,-10.503,-0.010503
-0.0497283,-0.00161535,-1.61535,-10.6236,-0.0106236
-0.0517208,-0.00162121,-1.62121,-10.6621,-0.0106621
-0.0536965,-0.00164136,-1.64136,-10.7947,-0.0107947
-0.0556766,-0.00166061,-1.66061,-10.9213,-0.0109213
-0.0576268,-0.00168663,-1.68663,-11.0924,-0.0110924
-0.0595948,-0.00172954,-1.72954,-11.3746,-0.0113746
-0.0616461,-0.00177009,-1.77009,-11.6413,-0.0116413
-0.06363754,-0.00179573,-1.79573,-11.8099,-0.0118099
-0.0656347,-0.00180701,-1.80701,-11.884,-0.011884
-0.0676408,-0.0018222,-1.8222,-11.984,-0.011984
-0.0696364,-0.00184824,-1.84824,-12.1553,-0.0121553
-0.07163658,-0.00187662,-1.87662,-12.3419,-0.0123419
-0.0736257,-0.00188532,-1.88532,-12.3991,-0.0123991
-0.0756156,-0.00191168,-1.91168,-12.5725,-0.0125725
-0.0776217,-0.00194883,-1.94883,-12.8168,-0.0128168
-0.0795974,-0.00199463,-1.99463,-13.118,-0.013118
-0.0815789,-0.00203402,-2.03402,-13.377,-0.013377
-0.0835705,-0.00207077,-2.07077,-13.6188,-0.0136188
-0.0856095,-0.00211355,-2.11355,-13.9001,-0.0139001
-0.08762572,-0.00217115,-2.17115,-14.2789,-0.0142789
-0.0895898,-0.00224273,-2.24273,-14.7496,-0.0147496
-0.09155786,-0.002285,-2.285,-15.0277,-0.0150277
-0.0935707,-0.0023177,-2.3177,-15.2427,-0.0152427
-0.0955486,-0.0023652,-2.3652,-15.5551,-0.0155551
-0.0975995,-0.00241944,-2.41944,-15.9118,-0.0159118
-0.099611,-0.00249066,-2.49066,-16.3802,-0.0163802
-0.10161,-0.00257733,-2.57733,-16.9502,-0.0169502
-0.103605,-0.00262305,-2.62305,-17.2509,-0.0172509
-0.105594,-0.00267378,-2.67378,-17.5845,-0.0175845
-0.107618,-0.00274499,-2.74499,-18.0528,-0.0180528
-0.1096108,-0.00283556,-2.83556,-18.6485,-0.0186485
-0.111604,-0.00292904,-2.92904,-19.2633,-0.0192633
-0.113597,-0.00302329,-3.02329,-19.8831,-0.0198831
-0.115564,-0.00310341,-3.10341,-20.41,-0.02041
-0.117571,-0.00319493,-3.19493,-21.0119,-0.0210119
-0.119583,-0.0032781,-3.2781,-21.5589,-0.0215589
-0.121597,-0.00340433,-3.40433,-22.3891,-0.0223891
-0.123585,-0.00353147,-3.53147,-23.2252,-0.0232252
-0.125551,-0.00364794,-3.64794,-23.9912,-0.0239912
-0.127557,-0.00375431,-3.75431,-24.6908,-0.0246908
-0.129564,-0.00387832,-3.87832,-25.5064,-0.0255064
-0.131576,-0.00398411,-3.98411,-26.2021,-0.0262021
-0.133549,-0.00411682,-4.11682,-27.0749,-0.0270749
-0.135543,-0.00427594,-4.27594,-28.1213,-0.0281213
-0.137534,-0.00442137,-4.42137,-29.0778,-0.0290778
-0.1395234,-0.00457085,-4.57085,-30.0609,-0.0300609
-0.1414745,-0.00469559,-4.69559,-30.8812,-0.0308812
-0.143493,-0.00483166,-4.83166,-31.7762,-0.0317762
-0.145564,-0.00497219,-4.97219,-32.7004,-0.0327004
-0.147535,-0.0050866,-5.0866,-33.4528,-0.0334528
-0.149542,-0.00519809,-5.19809,-34.186,-0.034186
-0.151564,-0.00532249,-5.32249,-35.0042,-0.0350042
-0.153523,-0.00542322,-5.42322,-35.6666,-0.0356666
-0.155521,-0.00547957,-5.47957,-36.0372,-0.0360372
-0.157549,-0.00552267,-5.52267,-36.3206,-0.0363206
-0.15958,-0.00554353,-5.54353,-36.4579,-0.0364579
-0.161613,-0.00552866,-5.52866,-36.3601,-0.0363601
-0.163602,-0.00548313,-5.48313,-36.0606,-0.0360606
-0.165587,-0.00539972,-5.39972,-35.5121,-0.0355121
-0.167572,-0.00529147,-5.29147,-34.8001,-0.0348001
-0.16959,-0.00516181,-5.16181,-33.9474,-0.0339474
-0.171627,-0.00501279,-5.01279,-32.9674,-0.0329674
-0.173584,-0.00484471,-4.84471,-31.862,-0.031862
-0.175606,-0.00466437,-4.66437,-30.676,-0.030676
-0.177629,-0.00446587,-4.46587,-29.3705,-0.0293705
-0.1795873,-0.00423939,-4.23939,-27.881,-0.027881
-0.18154,-0.00404174,-4.04174,-26.5811,-0.0265811
-0.1835447,-0.00385406,-3.85406,-25.3468,-0.0253468
-0.185588,-0.00366982,-3.66982,-24.1351,-0.0241351
-0.187563,-0.00350415,-3.50415,-23.0456,-0.0230456
-0.189542,-0.00331498,-3.31498,-21.8015,-0.0218015
-0.191645,-0.00317209,-3.17209,-20.8618,-0.0208618
-0.193631,-0.00304955,-3.04955,-20.0558,-0.0200558
-0.195138,-0.00297402,-2.97402,-19.5591,-0.0195591
-0.195207,-0.00293822,-2.93822,-19.3236,-0.0193236