File: literature/rawdata/engstfeld_2018_polycrystalline_17743/engstfeld_2018_polycrystalline_17743_f4b_1.csv
E,<I>,I (raw),j,j
V vs. RHE,mA,\g(m)A,\g(m)A cm\+(-2),mA cm\+(-2)
0.495555,0.0514638,51.4638,182.016,0.182016
0.497361,0.0384805,38.4805,136.097,0.136097
0.499074,0.0207573,20.7573,73.4141,0.0734141
0.499078,0.00696268,6.96268,24.6254,0.0246254
0.497462,-0.000379931,-0.379931,-1.34373,-0.00134373
0.495087,-0.00282786,-2.82786,-10.0015,-0.0100015
0.492742,-0.00329608,-3.29608,-11.6575,-0.0116575
0.4905557,-0.00367688,-3.67688,-13.0043,-0.0130043
0.488526,-0.0044823,-4.4823,-15.8529,-0.0158529
0.486536,-0.00568165,-5.68165,-20.0947,-0.0200947
0.484648,-0.00723047,-7.23047,-25.5726,-0.0255726
0.482649,-0.00929438,-9.29438,-32.8722,-0.0328722
0.480717,-0.0120673,-12.0673,-42.6793,-0.0426793
0.478778,-0.0157408,-15.7408,-55.6718,-0.0556718
0.476798,-0.0204866,-20.4866,-72.4565,-0.0724565
0.474872,-0.0263076,-26.3076,-93.0442,-0.0930442
0.472917,-0.0329095,-32.9095,-116.394,-0.116394
0.470944,-0.039723,-39.723,-140.491,-0.140491
0.468983,-0.0459564,-45.9564,-162.537,-0.162537
0.466912,-0.0504867,-50.4867,-178.56,-0.17856
0.464747,-0.052212,-52.212,-184.662,-0.184662
0.462635,-0.0506987,-50.6987,-179.31,-0.17931
0.460597,-0.0470608,-47.0608,-166.443,-0.166443
0.458433,-0.0433995,-43.3995,-153.494,-0.153494
0.456467,-0.0406013,-40.6013,-143.598,-0.143598
0.454557,-0.0381577,-38.1577,-134.955,-0.134955
0.452419,-0.0352802,-35.2802,-124.778,-0.124778
0.450497,-0.0313514,-31.3514,-110.883,-0.110883
0.448358,-0.0267966,-26.7966,-94.7735,-0.0947735
0.446466,-0.0224015,-22.4015,-79.229,-0.079229
0.4443543,-0.0187,-18.7,-66.1377,-0.0661377
0.442485,-0.0157407,-15.7407,-55.6713,-0.0556713
0.440532,-0.0134929,-13.4929,-47.7213,-0.0477213
0.43845,-0.0117631,-11.7631,-41.6033,-0.0416033
0.436544,-0.0102715,-10.2715,-36.3279,-0.0363279
0.4346,-0.00908579,-9.08579,-32.1344,-0.0321344
0.43266,-0.00820016,-8.20016,-29.0021,-0.0290021
0.430661,-0.00751086,-7.51086,-26.5642,-0.0265642
0.428665,-0.00695316,-6.95316,-24.5918,-0.0245918
0.426649,-0.00650723,-6.50723,-23.0146,-0.0230146
0.424663,-0.0061458,-6.1458,-21.7363,-0.0217363
0.42268,-0.00583785,-5.83785,-20.6472,-0.0206472
0.420666,-0.00557754,-5.57754,-19.7265,-0.0197265
0.4186824,-0.00536081,-5.36081,-18.96,-0.01896
0.416499,-0.00516826,-5.16826,-18.279,-0.018279
0.414536,-0.00492069,-4.92069,-17.4034,-0.0174034
0.4125948,-0.0047453,-4.7453,-16.7831,-0.0167831
0.4106538,-0.00468779,-4.68779,-16.5797,-0.0165797
0.40868,-0.00464219,-4.64219,-16.4184,-0.0164184
0.4066655,-0.00454963,-4.54963,-16.091,-0.016091
0.404679,-0.00442836,-4.42836,-15.6621,-0.0156621
0.402677,-0.00430477,-4.30477,-15.225,-0.015225
0.400691,-0.00417208,-4.17208,-14.7557,-0.0147557
0.398676,-0.00401329,-4.01329,-14.1941,-0.0141941
0.396703,-0.00384978,-3.84978,-13.6158,-0.0136158
0.394691,-0.00369867,-3.69867,-13.0814,-0.0130814
0.392668,-0.00353849,-3.53849,-12.5149,-0.0125149
0.390668,-0.00337152,-3.37152,-11.9243,-0.0119243
0.3886753,-0.00324123,-3.24123,-11.4635,-0.0114635
0.386693,-0.00314191,-3.14191,-11.1122,-0.0111122
0.384695,-0.00304528,-3.04528,-10.7705,-0.0107705
0.382705,-0.00294884,-2.94884,-10.4294,-0.0104294
0.380706,-0.00285382,-2.85382,-10.0933,-0.0100933
0.378697,-0.00275325,-2.75325,-9.73764,-0.00973764
0.376699,-0.00265666,-2.65666,-9.39602,-0.00939602
0.374689,-0.00257613,-2.57613,-9.1112,-0.0091112
0.372693,-0.00250156,-2.50156,-8.84745,-0.00884745
0.370685,-0.00242758,-2.42758,-8.5858,-0.0085858
0.368684,-0.00235771,-2.35771,-8.33868,-0.00833868
0.366684,-0.00229597,-2.29597,-8.12032,-0.00812032
0.364693,-0.00224249,-2.24249,-7.9312,-0.0079312
0.362692,-0.00219671,-2.19671,-7.76927,-0.00776927
0.360693,-0.00215169,-2.15169,-7.61005,-0.00761005
0.358708,-0.00210213,-2.10213,-7.43476,-0.00743476
0.356712,-0.00205719,-2.05719,-7.27583,-0.00727583
0.354715,-0.00201539,-2.01539,-7.12799,-0.00712799
0.352735,-0.00197573,-1.97573,-6.98773,-0.00698773
0.350736,-0.00193962,-1.93962,-6.86,-0.00686
0.348729,-0.00188954,-1.88954,-6.68288,-0.00668288
0.3467201,-0.00183106,-1.83106,-6.47607,-0.00647607
0.344715,-0.00178033,-1.78033,-6.29662,-0.00629662
0.342702,-0.00173973,-1.73973,-6.15304,-0.00615304
0.340705,-0.00171622,-1.71622,-6.06989,-0.00606989
0.338741,-0.00169951,-1.69951,-6.0108,-0.0060108
0.336733,-0.00168234,-1.68234,-5.95007,-0.00595007
0.33473,-0.00166174,-1.66174,-5.87721,-0.00587721
0.3327392,-0.00164037,-1.64037,-5.80163,-0.00580163
0.3307237,-0.00162224,-1.62224,-5.7375,-0.0057375
0.328743,-0.00160613,-1.60613,-5.68054,-0.00568054
0.326751,-0.00158291,-1.58291,-5.59839,-0.00559839
0.324748,-0.00156218,-1.56218,-5.52506,-0.00552506
0.3227441,-0.00154819,-1.54819,-5.47559,-0.00547559
0.3207494,-0.00153801,-1.53801,-5.4396,-0.0054396
0.318735,-0.00152801,-1.52801,-5.40423,-0.00540423
0.3167305,-0.00151354,-1.51354,-5.35305,-0.00535305
0.314732,-0.00149906,-1.49906,-5.30186,-0.00530186
0.312736,-0.00148897,-1.48897,-5.26617,-0.00526617
0.31072,-0.00148463,-1.48463,-5.25079,-0.00525079
0.308734,-0.00147933,-1.47933,-5.23206,-0.00523206
0.306756,-0.0014648,-1.4648,-5.18066,-0.00518066
0.304756,-0.00144985,-1.44985,-5.12779,-0.00512779
0.302741,-0.00144197,-1.44197,-5.09992,-0.00509992
0.300754,-0.00143416,-1.43416,-5.07229,-0.00507229
0.29874,-0.00142576,-1.42576,-5.0426,-0.0050426
0.29675,-0.0014246,-1.4246,-5.0385,-0.0050385
0.294748,-0.00142324,-1.42324,-5.03368,-0.00503368
0.292755,-0.00141849,-1.41849,-5.01689,-0.00501689
0.290762,-0.00141517,-1.41517,-5.00516,-0.00500516
0.2887384,-0.00141064,-1.41064,-4.98911,-0.00498911
0.286767,-0.00140474,-1.40474,-4.96824,-0.00496824
0.284755,-0.00139835,-1.39835,-4.94565,-0.00494565
0.282761,-0.00139158,-1.39158,-4.92169,-0.00492169
0.2807577,-0.00138765,-1.38765,-4.90781,-0.00490781
0.278747,-0.00138565,-1.38565,-4.90072,-0.00490072
0.2767823,-0.00138438,-1.38438,-4.89623,-0.00489623
0.27476,-0.00138076,-1.38076,-4.88343,-0.00488343
0.27276,-0.00137723,-1.37723,-4.87095,-0.00487095
0.270766,-0.00137543,-1.37543,-4.86459,-0.00486459
0.2687518,-0.00137471,-1.37471,-4.86203,-0.00486203
0.266761,-0.00137294,-1.37294,-4.85579,-0.00485579
0.264752,-0.00137124,-1.37124,-4.84978,-0.00484978
0.262762,-0.00136888,-1.36888,-4.84142,-0.00484142
0.260756,-0.00136757,-1.36757,-4.83681,-0.00483681
0.258743,-0.0013669,-1.3669,-4.83443,-0.00483443
0.256741,-0.00136534,-1.36534,-4.82891,-0.00482891
0.254751,-0.00136421,-1.36421,-4.82491,-0.00482491
0.252765,-0.00136335,-1.36335,-4.82187,-0.00482187
0.250775,-0.00136412,-1.36412,-4.82459,-0.00482459
0.248786,-0.00136405,-1.36405,-4.82434,-0.00482434
0.246777,-0.00136488,-1.36488,-4.82727,-0.00482727
0.244772,-0.0013663,-1.3663,-4.8323,-0.0048323
0.242769,-0.00136927,-1.36927,-4.84282,-0.00484282
0.240757,-0.00136879,-1.36879,-4.8411,-0.0048411
0.238767,-0.00136763,-1.36763,-4.837,-0.004837
0.236847,-0.0013711,-1.3711,-4.84928,-0.00484928
0.234826,-0.00138512,-1.38512,-4.89885,-0.00489885
0.232794,-0.00138628,-1.38628,-4.90295,-0.00490295
0.230776,-0.00138042,-1.38042,-4.88225,-0.00488225
0.228751,-0.00137472,-1.37472,-4.86206,-0.00486206
0.226755,-0.00137553,-1.37553,-4.86495,-0.00486495
0.224779,-0.00137923,-1.37923,-4.87801,-0.00487801
0.222788,-0.00138115,-1.38115,-4.88483,-0.00488483
0.220807,-0.00138462,-1.38462,-4.8971,-0.0048971
0.218786,-0.00138756,-1.38756,-4.90747,-0.00490747
0.216773,-0.00138967,-1.38967,-4.91494,-0.00491494
0.214784,-0.00139272,-1.39272,-4.92575,-0.00492575
0.212763,-0.00139506,-1.39506,-4.93403,-0.00493403
0.210779,-0.00139836,-1.39836,-4.9457,-0.0049457
0.208773,-0.00140248,-1.40248,-4.96027,-0.00496027
0.206751,-0.00140977,-1.40977,-4.98606,-0.00498606
0.204784,-0.00141631,-1.41631,-5.00918,-0.00500918
0.202787,-0.00141768,-1.41768,-5.01402,-0.00501402
0.200776,-0.00141758,-1.41758,-5.01365,-0.00501365
0.198787,-0.00141626,-1.41626,-5.00898,-0.00500898
0.1967847,-0.00141558,-1.41558,-5.00658,-0.00500658
0.194792,-0.00142232,-1.42232,-5.03043,-0.00503043
0.192782,-0.00142764,-1.42764,-5.04924,-0.00504924
0.190783,-0.00143695,-1.43695,-5.08216,-0.00508216
0.188779,-0.00144409,-1.44409,-5.10743,-0.00510743
0.186809,-0.00144774,-1.44774,-5.12034,-0.00512034
0.184775,-0.00145082,-1.45082,-5.13124,-0.00513124
0.18279,-0.00145588,-1.45588,-5.14912,-0.00514912
0.1807843,-0.00146092,-1.46092,-5.16694,-0.00516694
0.178807,-0.00146672,-1.46672,-5.18745,-0.00518745
0.176789,-0.00147287,-1.47287,-5.20923,-0.00520923
0.174802,-0.00147697,-1.47697,-5.22372,-0.00522372
0.172811,-0.00148296,-1.48296,-5.24488,-0.00524488
0.170817,-0.00148937,-1.48937,-5.26758,-0.00526758
0.168808,-0.00149708,-1.49708,-5.29485,-0.00529485
0.166817,-0.00150638,-1.50638,-5.32774,-0.00532774
0.164798,-0.00151235,-1.51235,-5.34884,-0.00534884
0.162819,-0.00151653,-1.51653,-5.36361,-0.00536361
0.1608064,-0.0015195,-1.5195,-5.37413,-0.00537413
0.1587943,-0.00152413,-1.52413,-5.39051,-0.00539051
0.156806,-0.00153078,-1.53078,-5.41403,-0.00541403
0.154811,-0.00153647,-1.53647,-5.43416,-0.00543416
0.152815,-0.0015425,-1.5425,-5.45546,-0.00545546
0.150819,-0.00154902,-1.54902,-5.47855,-0.00547855
0.148814,-0.00155711,-1.55711,-5.50716,-0.00550716
0.146823,-0.0015644,-1.5644,-5.53294,-0.00553294
0.144827,-0.0015707,-1.5707,-5.55523,-0.00555523
0.142819,-0.00157847,-1.57847,-5.5827,-0.0055827
0.1408253,-0.00159038,-1.59038,-5.62483,-0.00562483
0.138809,-0.00159996,-1.59996,-5.65869,-0.00565869
0.136811,-0.00160655,-1.60655,-5.682,-0.005682
0.134812,-0.00160836,-1.60836,-5.68841,-0.00568841
0.13281,-0.00160857,-1.60857,-5.68914,-0.00568914
0.130804,-0.00161337,-1.61337,-5.70614,-0.00570614
0.128794,-0.00162464,-1.62464,-5.74599,-0.00574599
0.1267992,-0.00163379,-1.63379,-5.77836,-0.00577836
0.124814,-0.00164283,-1.64283,-5.81031,-0.00581031
0.122791,-0.00165661,-1.65661,-5.85906,-0.00585906
0.120781,-0.00166795,-1.66795,-5.89915,-0.00589915
0.118784,-0.00167656,-1.67656,-5.92961,-0.00592961
0.116799,-0.00168786,-1.68786,-5.96957,-0.00596957
0.114788,-0.00169675,-1.69675,-6.00101,-0.00600101
0.112793,-0.00170434,-1.70434,-6.02786,-0.00602786
0.110797,-0.00171268,-1.71268,-6.05738,-0.00605738
0.108802,-0.00172105,-1.72105,-6.08695,-0.00608695
0.106829,-0.00172928,-1.72928,-6.11609,-0.00611609
0.104824,-0.00173868,-1.73868,-6.14933,-0.00614933
0.102837,-0.00174916,-1.74916,-6.18638,-0.00618638
0.10082,-0.0017585,-1.7585,-6.21942,-0.00621942
0.0988224,-0.00176751,-1.76751,-6.25129,-0.00625129
0.09683,-0.00177967,-1.77967,-6.2943,-0.0062943
0.0948266,-0.00179122,-1.79122,-6.33514,-0.00633514
0.0928366,-0.00180249,-1.80249,-6.37499,-0.00637499
0.0908291,-0.00181463,-1.81463,-6.41793,-0.00641793
0.0888279,-0.0018265,-1.8265,-6.45992,-0.00645992
0.0868283,-0.00183584,-1.83584,-6.49296,-0.00649296
0.08482682,-0.00184875,-1.84875,-6.53861,-0.00653861
0.08292973,-0.00186481,-1.86481,-6.59543,-0.00659543
0.0809102,-0.00189964,-1.89964,-6.71859,-0.00671859
0.0788809,-0.00191705,-1.91705,-6.78019,-0.00678019
0.0768427,-0.0019174,-1.9174,-6.78142,-0.00678142
0.0748253,-0.00191692,-1.91692,-6.77972,-0.00677972
0.0728296,-0.0019259,-1.9259,-6.81148,-0.00681148
0.0708485,-0.00194003,-1.94003,-6.86147,-0.00686147
0.06882406,-0.00195584,-1.95584,-6.91736,-0.00691736
0.0668383,-0.00197254,-1.97254,-6.97642,-0.00697642
0.064823,-0.00198961,-1.98961,-7.0368,-0.0070368
0.0628315,-0.00200183,-2.00183,-7.08002,-0.00708002
0.06083319,-0.00201519,-2.01519,-7.12728,-0.00712728
0.05883256,-0.00203016,-2.03016,-7.18023,-0.00718023
0.0568415,-0.00204742,-2.04742,-7.24126,-0.00724126
0.0548347,-0.00206442,-2.06442,-7.30141,-0.00730141
0.0528461,-0.00207967,-2.07967,-7.35532,-0.00735532
0.0508311,-0.00209576,-2.09576,-7.41222,-0.00741222
0.0488506,-0.00211364,-2.11364,-7.47548,-0.00747548
0.0468576,-0.00213063,-2.13063,-7.53555,-0.00753555
0.0448404,-0.00214811,-2.14811,-7.59739,-0.00759739
0.042843,-0.00216895,-2.16895,-7.67109,-0.00767109
0.0408546,-0.00218999,-2.18999,-7.74551,-0.00774551
0.0388449,-0.00221102,-2.21102,-7.81987,-0.00781987
0.0368578,-0.00222948,-2.22948,-7.88518,-0.00788518
0.0348379,-0.00224693,-2.24693,-7.94688,-0.00794688
0.0328663,-0.00226486,-2.26486,-8.01031,-0.00801031
0.030853,-0.00228696,-2.28696,-8.08847,-0.00808847
0.0288474,-0.00231076,-2.31076,-8.17265,-0.00817265
0.0268453,-0.00233484,-2.33484,-8.25781,-0.00825781
0.02485,-0.00235757,-2.35757,-8.33819,-0.00833819
0.02285805,-0.00238228,-2.38228,-8.42558,-0.00842558
0.0208674,-0.00240561,-2.40561,-8.50811,-0.00850811
0.0188661,-0.00242843,-2.42843,-8.5888,-0.0085888
0.0168595,-0.00245366,-2.45366,-8.67805,-0.00867805
0.01485445,-0.00248382,-2.48382,-8.78473,-0.00878473
0.0128404,-0.00251244,-2.51244,-8.88596,-0.00888596
0.0108489,-0.00253912,-2.53912,-8.9803,-0.0089803
0.00886146,-0.00256462,-2.56462,-9.07047,-0.00907047
0.00685382,-0.00258773,-2.58773,-9.15223,-0.00915223
0.00486401,-0.00261718,-2.61718,-9.25638,-0.00925638
0.00286677,-0.00265127,-2.65127,-9.37694,-0.00937694
0.000847669,-0.00268744,-2.68744,-9.50487,-0.00950487
-0.00115657,-0.00272021,-2.72021,-9.62077,-0.00962077
-0.00315679,-0.00274876,-2.74876,-9.72174,-0.00972174
-0.00514893,-0.002778,-2.778,-9.82518,-0.00982518
-0.00715021,-0.00281087,-2.81087,-9.94143,-0.00994143
-0.009156785,-0.00284961,-2.84961,-10.0784,-0.0100784
-0.011167,-0.00289195,-2.89195,-10.2282,-0.0102282
-0.0131532,-0.00293178,-2.93178,-10.3691,-0.0103691
-0.0151778,-0.00296858,-2.96858,-10.4992,-0.0104992
-0.0171598,-0.0030068,-3.0068,-10.6344,-0.0106344
-0.0191481,-0.00304675,-3.04675,-10.7757,-0.0107757
-0.0211561,-0.00308619,-3.08619,-10.9152,-0.0109152
-0.0231699,-0.00313187,-3.13187,-11.0767,-0.0110767
-0.02514956,-0.00317838,-3.17838,-11.2412,-0.0112412
-0.0271684,-0.00322621,-3.22621,-11.4104,-0.0114104
-0.0290747,-0.00327269,-3.27269,-11.5748,-0.0115748
-0.031063,-0.00335023,-3.35023,-11.849,-0.011849
-0.0331005,-0.00342792,-3.42792,-12.1238,-0.0121238
-0.0351067,-0.00346915,-3.46915,-12.2696,-0.0122696
-0.0371311,-0.0035021,-3.5021,-12.3862,-0.0123862
-0.0391504,-0.0035509,-3.5509,-12.5588,-0.0125588
-0.0411404,-0.00361094,-3.61094,-12.7711,-0.0127711
-0.0431589,-0.00368585,-3.68585,-13.036,-0.013036
-0.0451334,-0.00375116,-3.75116,-13.267,-0.013267
-0.047136,-0.00380076,-3.80076,-13.4424,-0.0134424
-0.0491188,-0.00384717,-3.84717,-13.6066,-0.0136066
-0.05112749,-0.00391779,-3.91779,-13.8563,-0.0138563
-0.0531037,-0.00400591,-4.00591,-14.168,-0.014168
-0.0551014,-0.00410989,-4.10989,-14.5358,-0.0145358
-0.0571124,-0.00418293,-4.18293,-14.7941,-0.0147941
-0.0591124,-0.00422302,-4.22302,-14.9359,-0.0149359
-0.0611024,-0.00431647,-4.31647,-15.2664,-0.0152664
-0.063129,-0.00443634,-4.43634,-15.6903,-0.0156903
-0.065119,-0.00453931,-4.53931,-16.0545,-0.0160545
-0.0670995,-0.00463077,-4.63077,-16.378,-0.016378
-0.0691137,-0.00472757,-4.72757,-16.7204,-0.0167204
-0.0710901,-0.00484471,-4.84471,-17.1347,-0.0171347
-0.0730912,-0.00497671,-4.97671,-17.6015,-0.0176015
-0.0750967,-0.00510343,-5.10343,-18.0497,-0.0180497
-0.0770884,-0.00522314,-5.22314,-18.4731,-0.0184731
-0.0791118,-0.00533003,-5.33003,-18.8511,-0.0188511
-0.0811118,-0.00544771,-5.44771,-19.2673,-0.0192673
-0.0831075,-0.00558464,-5.58464,-19.7516,-0.0197516
-0.0850903,-0.00572993,-5.72993,-20.2655,-0.0202655
-0.0870452,-0.00587932,-5.87932,-20.7938,-0.0207938
-0.0890078,-0.00606523,-6.06523,-21.4514,-0.0214514
-0.0910413,-0.00628503,-6.28503,-22.2288,-0.0222288
-0.0930836,-0.00644791,-6.44791,-22.8048,-0.0228048
-0.0951007,-0.00657173,-6.57173,-23.2427,-0.0232427
-0.0970846,-0.00671298,-6.71298,-23.7423,-0.0237423
-0.0990903,-0.0068877,-6.8877,-24.3603,-0.0243603
-0.1011,-0.00706801,-7.06801,-24.998,-0.024998
-0.103095,-0.00724125,-7.24125,-25.6107,-0.0256107
-0.105078,-0.00742457,-7.42457,-26.259,-0.026259
-0.107076,-0.0076157,-7.6157,-26.935,-0.026935
-0.109075,-0.00781668,-7.81668,-27.6458,-0.0276458
-0.111063,-0.00802172,-8.02172,-28.371,-0.028371
-0.113053,-0.00823459,-8.23459,-29.1239,-0.0291239
-0.115064,-0.00844299,-8.44299,-29.861,-0.029861
-0.117078,-0.0086407,-8.6407,-30.5602,-0.0305602
-0.119049,-0.00883796,-8.83796,-31.2579,-0.0312579
-0.121017,-0.00904059,-9.04059,-31.9745,-0.0319745
-0.122953,-0.00928906,-9.28906,-32.8533,-0.0328533
-0.1249821,-0.0095988,-9.5988,-33.9488,-0.0339488
-0.127024,-0.00982719,-9.82719,-34.7566,-0.0347566
-0.129027,-0.00997477,-9.97477,-35.2785,-0.0352785
-0.131058,-0.0101112,-10.1112,-35.7612,-0.0357612
-0.133036,-0.0102792,-10.2792,-36.3554,-0.0363554
-0.135035,-0.0104705,-10.4705,-37.0319,-0.0370319
-0.137015,-0.0106622,-10.6622,-37.7097,-0.0377097
-0.139024,-0.0108564,-10.8564,-38.3968,-0.0383968
-0.141009,-0.0110288,-11.0288,-39.0065,-0.0390065
-0.143028,-0.0111725,-11.1725,-39.5145,-0.0395145
-0.145029,-0.0113014,-11.3014,-39.9705,-0.0399705
-0.147016,-0.0114177,-11.4177,-40.3818,-0.0403818
-0.1490014,-0.0115193,-11.5193,-40.7413,-0.0407413
-0.15103,-0.0115901,-11.5901,-40.9916,-0.0409916
-0.152997,-0.011618,-11.618,-41.0904,-0.0410904
-0.1550169,-0.0116009,-11.6009,-41.0299,-0.0410299
-0.15699,-0.0115322,-11.5322,-40.7867,-0.0407867
-0.15899,-0.0113977,-11.3977,-40.3113,-0.0403113
-0.16099,-0.0111848,-11.1848,-39.558,-0.039558
-0.1629772,-0.0108876,-10.8876,-38.5069,-0.0385069
-0.164979,-0.0105051,-10.5051,-37.1541,-0.0371541
-0.16698,-0.0100262,-10.0262,-35.4605,-0.0354605
-0.168975,-0.00946421,-9.46421,-33.4728,-0.0334728
-0.17098,-0.00884378,-8.84378,-31.2785,-0.0312785
-0.172976,-0.0081892,-8.1892,-28.9634,-0.0289634
-0.174961,-0.00752982,-7.52982,-26.6313,-0.0266313
-0.176936,-0.00688999,-6.88999,-24.3683,-0.0243683
-0.178937,-0.00628254,-6.28254,-22.2199,-0.0222199
-0.180941,-0.00571253,-5.71253,-20.204,-0.020204
-0.182926,-0.0051926,-5.1926,-18.3651,-0.0183651
-0.184923,-0.00472697,-4.72697,-16.7182,-0.0167182
-0.18691,-0.0043141,-4.3141,-15.258,-0.015258
-0.188906,-0.0039577,-3.9577,-13.9975,-0.0139975
-0.190913,-0.00364208,-3.64208,-12.8812,-0.0128812
-0.193079,-0.00333775,-3.33775,-11.8049,-0.0118049
-0.194978,-0.00303079,-3.03079,-10.7192,-0.0107192
-0.195996,-0.00289078,-2.89078,-10.224,-0.010224
-0.1977291,-0.00231332,-2.31332,-8.1817,-0.0081817
-0.1984359,-0.000756131,-0.756131,-2.67427,-0.00267427
-0.197691,0.000811361,0.811361,2.8696,0.0028696
-0.19591,0.00165206,1.65206,5.84297,0.00584297
-0.193771,0.00194407,1.94407,6.87573,0.00687573
-0.191617,0.00205227,2.05227,7.25841,0.00725841
-0.1896067,0.00219014,2.19014,7.74605,0.00774605
-0.187601,0.00240246,2.40246,8.49696,0.00849696
-0.185646,0.00266797,2.66797,9.436,0.009436
-0.183659,0.00296495,2.96495,10.4864,0.0104864
-0.181659,0.00327286,3.27286,11.5754,0.0115754
-0.1796782,0.0035982,3.5982,12.726,0.012726
-0.1776727,0.003937,3.937,13.9243,0.0139243
-0.175808,0.00429361,4.29361,15.1855,0.0151855
-0.173799,0.00471376,4.71376,16.6715,0.0166715
-0.171779,0.0051503,5.1503,18.2155,0.0182155
-0.169775,0.00550984,5.50984,19.4871,0.0194871
-0.167766,0.00584269,5.84269,20.6643,0.0206643
-0.165752,0.00618615,6.18615,21.879,0.021879
-0.163766,0.00653362,6.53362,23.1079,0.0231079
-0.161771,0.00686592,6.86592,24.2832,0.0242832
-0.159774,0.00718259,7.18259,25.4032,0.0254032
-0.157795,0.00748473,7.48473,26.4718,0.0264718
-0.1559038,0.00776694,7.76694,27.4699,0.0274699
-0.153883,0.00808759,8.08759,28.604,0.028604
-0.151855,0.00838229,8.38229,29.6463,0.0296463
-0.149825,0.00854394,8.54394,30.218,0.030218
-0.147816,0.00863569,8.63569,30.5425,0.0305425
-0.145816,0.00872684,8.72684,30.8649,0.0308649
-0.14382,0.00882012,8.82012,31.1948,0.0311948
-0.141831,0.00890439,8.90439,31.4929,0.0314929
-0.139842,0.00896716,8.96716,31.7148,0.0317148
-0.137842,0.00899345,8.99345,31.8078,0.0318078
-0.135832,0.00899484,8.99484,31.8127,0.0318127
-0.1338497,0.00897973,8.97973,31.7593,0.0317593
-0.13187,0.00894742,8.94742,31.645,0.031645
-0.1298707,0.00889765,8.89765,31.469,0.031469
-0.127851,0.00884264,8.84264,31.2744,0.0312744
-0.12585,0.00877477,8.77477,31.0344,0.0310344
-0.123859,0.00868733,8.68733,30.7251,0.0307251
-0.1218586,0.00858496,8.58496,30.3631,0.0303631
-0.119859,0.00847959,8.47959,29.9904,0.0299904
-0.117875,0.0083712,8.3712,29.6071,0.0296071
-0.11588,0.00825864,8.25864,29.209,0.029209
-0.113892,0.00813508,8.13508,28.772,0.028772
-0.111886,0.00799672,7.99672,28.2826,0.0282826
-0.109884,0.00784571,7.84571,27.7485,0.0277485
-0.107897,0.00769633,7.69633,27.2202,0.0272202
-0.105901,0.0075484,7.5484,26.697,0.026697
-0.10388,0.00739714,7.39714,26.162,0.026162
-0.101867,0.00724562,7.24562,25.6261,0.0256261
-0.0998741,0.00708735,7.08735,25.0664,0.0250664
-0.0978875,0.00692322,6.92322,24.4859,0.0244859
-0.0958943,0.00675134,6.75134,23.878,0.023878
-0.09388,0.006574,6.574,23.2508,0.0232508
-0.0918854,0.00640435,6.40435,22.6508,0.0226508
-0.0898826,0.00624389,6.24389,22.0833,0.0220833
-0.0879001,0.00608042,6.08042,21.5051,0.0215051
-0.0859082,0.00591264,5.91264,20.9117,0.0209117
-0.0838937,0.0057426,5.7426,20.3103,0.0203103
-0.0818959,0.00558013,5.58013,19.7357,0.0197357
-0.0798894,0.00542165,5.42165,19.1752,0.0191752
-0.0779162,0.00526583,5.26583,18.6241,0.0186241
-0.07589376,0.00511825,5.11825,18.1021,0.0181021
-0.0739066,0.00497532,4.97532,17.5966,0.0175966
-0.0719234,0.00483009,4.83009,17.0829,0.0170829
-0.0699402,0.00468839,4.68839,16.5818,0.0165818
-0.067942,0.00455835,4.55835,16.1219,0.0161219
-0.0659379,0.00443354,4.43354,15.6804,0.0156804
-0.063925,0.00430714,4.30714,15.2334,0.0152334
-0.0619206,0.00418085,4.18085,14.7867,0.0147867
-0.0599311,0.00405665,4.05665,14.3475,0.0143475
-0.0579371,0.0039423,3.9423,13.943,0.013943
-0.0559325,0.00383549,3.83549,13.5653,0.0135653
-0.053947,0.00372651,3.72651,13.1798,0.0131798
-0.0519549,0.00362048,3.62048,12.8048,0.0128048
-0.0499663,0.00353297,3.53297,12.4953,0.0124953
-0.0479719,0.00344914,3.44914,12.1988,0.0121988
-0.0459762,0.00335509,3.35509,11.8662,0.0118662
-0.0439729,0.00326564,3.26564,11.5499,0.0115499
-0.0419615,0.00318334,3.18334,11.2588,0.0112588
-0.0399592,0.00310493,3.10493,10.9814,0.0109814
-0.0379695,0.00302857,3.02857,10.7114,0.0107114
-0.0359752,0.0029534,2.9534,10.4455,0.0104455
-0.0339907,0.0028763,2.8763,10.1728,0.0101728
-0.0320018,0.00280997,2.80997,9.93825,0.00993825
-0.02999738,0.00274772,2.74772,9.71807,0.00971807
-0.0279922,0.00268013,2.68013,9.47901,0.00947901
-0.0259808,0.00261429,2.61429,9.24614,0.00924614
-0.0239912,0.00255364,2.55364,9.03164,0.00903164
-0.0219714,0.0024922,2.4922,8.81436,0.00881436
-0.01998673,0.00243738,2.43738,8.62048,0.00862048
-0.0180041,0.00238757,2.38757,8.4443,0.0084443
-0.0159918,0.00233771,2.33771,8.26796,0.00826796
-0.01399354,0.00228924,2.28924,8.09653,0.00809653
-0.0119809,0.00223748,2.23748,7.91345,0.00791345
-0.0099799,0.00218284,2.18284,7.7202,0.0077202
-0.00797531,0.00212724,2.12724,7.52356,0.00752356
-0.00600276,0.00208124,2.08124,7.36087,0.00736087
-0.00400369,0.00204404,2.04404,7.2293,0.0072293
-0.00198403,0.0020055,2.0055,7.09299,0.00709299
0.000188672,0.00196093,1.96093,6.93537,0.00693537
0.00216581,0.00186769,1.86769,6.6056,0.0066056
0.00409429,0.00177964,1.77964,6.29419,0.00629419
0.0060457,0.00176887,1.76887,6.25609,0.00625609
0.00800028,0.00177804,1.77804,6.28855,0.00628855
0.00996738,0.00176674,1.76674,6.24857,0.00624857
0.0119856,0.00173326,1.73326,6.13015,0.00613015
0.0140064,0.00169482,1.69482,5.99419,0.00599419
0.01599412,0.00165742,1.65742,5.86191,0.00586191
0.0180181,0.00162032,1.62032,5.73072,0.00573072
0.0199996,0.00158665,1.58665,5.61164,0.00561164
0.0220015,0.00155598,1.55598,5.50316,0.00550316
0.0239848,0.00152554,1.52554,5.39548,0.00539548
0.0260064,0.00149724,1.49724,5.29539,0.00529539
0.0279831,0.00146802,1.46802,5.19206,0.00519206
0.0299918,0.00143722,1.43722,5.08313,0.00508313
0.0319888,0.00140497,1.40497,4.96908,0.00496908
0.0340013,0.00137919,1.37919,4.87789,0.00487789
0.0359818,0.00135743,1.35743,4.80093,0.00480093
0.0378897,0.00133428,1.33428,4.71904,0.00471904
0.039912,0.00132772,1.32772,4.69587,0.00469587
0.0419461,0.00131022,1.31022,4.63394,0.00463394
0.043978,0.00126744,1.26744,4.48266,0.00448266
0.04598137,0.00122873,1.22873,4.34574,0.00434574
0.0479807,0.00120006,1.20006,4.24435,0.00424435
0.0499801,0.00117765,1.17765,4.1651,0.0041651
0.0519799,0.00115642,1.15642,4.08999,0.00408999
0.0539616,0.00113768,1.13768,4.02371,0.00402371
0.05598136,0.00111575,1.11575,3.94617,0.00394617
0.0579544,0.00109641,1.09641,3.87775,0.00387775
0.0599406,0.00107671,1.07671,3.80807,0.00380807
0.0619627,0.00105843,1.05843,3.74342,0.00374342
0.0639754,0.00104042,1.04042,3.67974,0.00367974
0.065964,0.00102216,1.02216,3.61514,0.00361514
0.0679782,0.00100235,1.00235,3.54507,0.00354507
0.0699678,0.000982322,0.982322,3.47425,0.00347425
0.0719754,0.000966866,0.966866,3.41959,0.00341959
0.0739756,0.000952332,0.952332,3.36819,0.00336819
0.0759765,0.000935667,0.935667,3.30924,0.00330924
0.0779741,0.000920532,0.920532,3.25572,0.00325572
0.0799533,0.000906068,0.906068,3.20456,0.00320456
0.0819497,0.000889467,0.889467,3.14584,0.00314584
0.0839548,0.000873687,0.873687,3.09004,0.00309004
0.0859451,0.000860331,0.860331,3.0428,0.0030428
0.0879563,0.000848678,0.848678,3.00158,0.00300158
0.0899642,0.000836251,0.836251,2.95763,0.00295763
0.0919631,0.000823539,0.823539,2.91267,0.00291267
0.0939597,0.000808667,0.808667,2.86007,0.00286007
0.0959535,0.000795751,0.795751,2.81439,0.00281439
0.0979595,0.000782885,0.782885,2.76889,0.00276889
0.0999427,0.00077184,0.77184,2.72983,0.00272983
0.101946,0.000761169,0.761169,2.69209,0.00269209
0.10394,0.000751758,0.751758,2.6588,0.0026588
0.1059425,0.000740769,0.740769,2.61993,0.00261993
0.107947,0.000729806,0.729806,2.58116,0.00258116
0.109944,0.000718654,0.718654,2.54172,0.00254172
0.111955,0.000707281,0.707281,2.50149,0.00250149
0.113956,0.000697452,0.697452,2.46673,0.00246673
0.115968,0.00068758,0.68758,2.43182,0.00243182
0.117961,0.000677883,0.677883,2.39752,0.00239752
0.11994,0.00066646,0.66646,2.35712,0.00235712
0.121933,0.000657293,0.657293,2.3247,0.0023247
0.123947,0.000648328,0.648328,2.29299,0.00229299
0.125934,0.00063868,0.63868,2.25887,0.00225887
0.1279223,0.000629729,0.629729,2.22721,0.00222721
0.129933,0.000620848,0.620848,2.1958,0.0021958
0.1319342,0.000611545,0.611545,2.1629,0.0021629
0.13393,0.000604259,0.604259,2.13713,0.00213713
0.1359259,0.000595923,0.595923,2.10765,0.00210765
0.137926,0.000588168,0.588168,2.08022,0.00208022
0.1399312,0.000582415,0.582415,2.05987,0.00205987
0.141937,0.00057598,0.57598,2.03711,0.00203711
0.143937,0.000568933,0.568933,2.01219,0.00201219
0.145951,0.000560968,0.560968,1.98402,0.00198402
0.147934,0.000553178,0.553178,1.95647,0.00195647
0.149938,0.000547349,0.547349,1.93585,0.00193585
0.151914,0.000540101,0.540101,1.91022,0.00191022
0.153929,0.000533232,0.533232,1.88592,0.00188592
0.155915,0.000527556,0.527556,1.86585,0.00186585
0.157917,0.000520806,0.520806,1.84197,0.00184197
0.159906,0.00051515,0.51515,1.82197,0.00182197
0.161895,0.000509753,0.509753,1.80288,0.00180288
0.163905,0.000505269,0.505269,1.78702,0.00178702
0.165917,0.000500651,0.500651,1.77069,0.00177069
0.167915,0.000494041,0.494041,1.74731,0.00174731
0.169927,0.000487131,0.487131,1.72287,0.00172287
0.171915,0.000481227,0.481227,1.70199,0.00170199
0.173919,0.000477822,0.477822,1.68995,0.00168995
0.1759242,0.000473818,0.473818,1.67579,0.00167579
0.177903,0.000469585,0.469585,1.66082,0.00166082
0.179936,0.000465413,0.465413,1.64606,0.00164606
0.181898,0.000461077,0.461077,1.63073,0.00163073
0.183895,0.000455631,0.455631,1.61147,0.00161147
0.185913,0.000452264,0.452264,1.59956,0.00159956
0.187896,0.000448406,0.448406,1.58591,0.00158591
0.189914,0.000446319,0.446319,1.57853,0.00157853
0.1918987,0.00044454,0.44454,1.57224,0.00157224
0.193891,0.000441208,0.441208,1.56045,0.00156045
0.195899,0.000437476,0.437476,1.54725,0.00154725
0.1979212,0.000434426,0.434426,1.53647,0.00153647
0.199903,0.00043049,0.43049,1.52255,0.00152255
0.201908,0.000429356,0.429356,1.51854,0.00151854
0.2039,0.000427688,0.427688,1.51264,0.00151264
0.205906,0.000424886,0.424886,1.50273,0.00150273
0.207908,0.000422108,0.422108,1.4929,0.0014929
0.2099108,0.000418848,0.418848,1.48137,0.00148137
0.211898,0.000416195,0.416195,1.47199,0.00147199
0.213907,0.000414565,0.414565,1.46622,0.00146622
0.215897,0.000414877,0.414877,1.46733,0.00146733
0.217917,0.000414865,0.414865,1.46729,0.00146729
0.219913,0.000412655,0.412655,1.45947,0.00145947
0.221902,0.000410273,0.410273,1.45105,0.00145105
0.223909,0.000407591,0.407591,1.44156,0.00144156
0.225905,0.000405813,0.405813,1.43527,0.00143527
0.2279,0.000406075,0.406075,1.4362,0.0014362
0.229911,0.000407923,0.407923,1.44273,0.00144273
0.231926,0.000407498,0.407498,1.44123,0.00144123
0.233904,0.000405518,0.405518,1.43423,0.00143423
0.235925,0.000404366,0.404366,1.43015,0.00143015
0.237921,0.000404804,0.404804,1.4317,0.0014317
0.2399,0.00040478,0.40478,1.43162,0.00143162
0.241912,0.000405941,0.405941,1.43572,0.00143572
0.243914,0.000408407,0.408407,1.44445,0.00144445
0.245902,0.000408489,0.408489,1.44473,0.00144473
0.247924,0.000408346,0.408346,1.44423,0.00144423
0.249911,0.000409221,0.409221,1.44732,0.00144732
0.251926,0.000409708,0.409708,1.44904,0.00144904
0.25391,0.00040983,0.40983,1.44948,0.00144948
0.255803,0.000414139,0.414139,1.46472,0.00146472
0.257827,0.000429583,0.429583,1.51934,0.00151934
0.259852,0.000434522,0.434522,1.53681,0.00153681
0.261875,0.000428353,0.428353,1.51499,0.00151499
0.263885,0.000422927,0.422927,1.4958,0.0014958
0.265872,0.000423834,0.423834,1.49901,0.00149901
0.267888,0.000429,0.429,1.51728,0.00151728
0.269871,0.000433613,0.433613,1.53359,0.00153359
0.271877,0.00043647,0.43647,1.5437,0.0015437
0.273887,0.00043938,0.43938,1.55399,0.00155399
0.275866,0.000443861,0.443861,1.56984,0.00156984
0.277888,0.000447415,0.447415,1.58241,0.00158241
0.279856,0.0004518,0.4518,1.59792,0.00159792
0.281849,0.000457176,0.457176,1.61693,0.00161693
0.283815,0.000464357,0.464357,1.64233,0.00164233
0.285821,0.000470288,0.470288,1.6633,0.0016633
0.287851,0.000476588,0.476588,1.68559,0.00168559
0.289849,0.000480903,0.480903,1.70085,0.00170085
0.291861,0.000487831,0.487831,1.72535,0.00172535
0.2938543,0.000495691,0.495691,1.75315,0.00175315
0.295871,0.000504047,0.504047,1.7827,0.0017827
0.297875,0.000512036,0.512036,1.81096,0.00181096
0.299877,0.000520701,0.520701,1.8416,0.0018416
0.301888,0.000529497,0.529497,1.87271,0.00187271
0.303875,0.000539063,0.539063,1.90655,0.00190655
0.305868,0.000549696,0.549696,1.94415,0.00194415
0.30787,0.000561446,0.561446,1.98571,0.00198571
0.309902,0.000573243,0.573243,2.02743,0.00202743
0.311895,0.00058492,0.58492,2.06873,0.00206873
0.313867,0.000598171,0.598171,2.1156,0.0021156
0.315875,0.000611504,0.611504,2.16275,0.00216275
0.317874,0.000626236,0.626236,2.21486,0.00221486
0.319867,0.000642211,0.642211,2.27136,0.00227136
0.321889,0.000655972,0.655972,2.32003,0.00232003
0.323884,0.000671725,0.671725,2.37574,0.00237574
0.32588,0.000689187,0.689187,2.4375,0.0024375
0.327867,0.000707671,0.707671,2.50288,0.00250288
0.329889,0.000725564,0.725564,2.56616,0.00256616
0.331877,0.000744559,0.744559,2.63334,0.00263334
0.333876,0.000766094,0.766094,2.7095,0.0027095
0.3358795,0.000788162,0.788162,2.78755,0.00278755
0.337877,0.000812877,0.812877,2.87496,0.00287496
0.339877,0.000835829,0.835829,2.95614,0.00295614
0.341869,0.000861725,0.861725,3.04773,0.00304773
0.343878,0.000889455,0.889455,3.1458,0.0031458
0.345887,0.00091631,0.91631,3.24078,0.00324078
0.347866,0.000946472,0.946472,3.34746,0.00334746
0.349879,0.000976409,0.976409,3.45334,0.00345334
0.351874,0.00100959,1.00959,3.5707,0.0035707
0.353869,0.00104769,1.04769,3.70543,0.00370543
0.355854,0.00110366,1.10366,3.90339,0.00390339
0.357858,0.00117071,1.17071,4.14056,0.00414056
0.359853,0.00122656,1.22656,4.33807,0.00433807
0.361856,0.0012613,1.2613,4.46094,0.00446094
0.3638525,0.00129182,1.29182,4.56888,0.00456888
0.365853,0.00132944,1.32944,4.70194,0.00470194
0.367848,0.00137692,1.37692,4.86985,0.00486985
0.369849,0.00142895,1.42895,5.05387,0.00505387
0.371844,0.00148108,1.48108,5.23823,0.00523823
0.3738468,0.00152983,1.52983,5.41066,0.00541066
0.375855,0.00158209,1.58209,5.59548,0.00559548
0.377746,0.00164008,1.64008,5.80061,0.00580061
0.379769,0.00172698,1.72698,6.10795,0.00610795
0.381785,0.0018057,1.8057,6.38637,0.00638637
0.383823,0.00185797,1.85797,6.57121,0.00657121
0.385863,0.00190674,1.90674,6.74372,0.00674372
0.387842,0.00196623,1.96623,6.9541,0.0069541
0.389854,0.00204095,2.04095,7.2184,0.0072184
0.391851,0.00212241,2.12241,7.50648,0.00750648
0.393851,0.00220973,2.20973,7.81533,0.00781533
0.395858,0.00230082,2.30082,8.13749,0.00813749
0.397856,0.00239126,2.39126,8.45734,0.00845734
0.39988,0.00248466,2.48466,8.78767,0.00878767
0.401872,0.00258474,2.58474,9.14165,0.00914165
0.403869,0.0026896,2.6896,9.51253,0.00951253
0.405844,0.00280002,2.80002,9.90306,0.00990306
0.407855,0.00291808,2.91808,10.3206,0.0103206
0.4098421,0.00303932,3.03932,10.7494,0.0107494
0.411834,0.00315676,3.15676,11.1648,0.0111648
0.413848,0.00326296,3.26296,11.5404,0.0115404
0.415837,0.00336418,3.36418,11.8983,0.0118983
0.417859,0.00345768,3.45768,12.229,0.012229
0.419837,0.00354402,3.54402,12.5344,0.0125344
0.421852,0.00362168,3.62168,12.8091,0.0128091
0.423862,0.00367969,3.67969,13.0142,0.0130142
0.425864,0.00372574,3.72574,13.1771,0.0131771
0.427853,0.00377279,3.77279,13.3435,0.0133435
0.429841,0.0038274,3.8274,13.5367,0.0135367
0.431831,0.00388978,3.88978,13.7573,0.0137573
0.433857,0.00396883,3.96883,14.0369,0.0140369
0.435857,0.00406687,4.06687,14.3836,0.0143836
0.43782,0.00417891,4.17891,14.7799,0.0147799
0.439748,0.00433234,4.33234,15.3225,0.0153225
0.4417901,0.00454305,4.54305,16.0677,0.0160677
0.4438315,0.00472728,4.72728,16.7193,0.0167193
0.445855,0.0049024,4.9024,17.3387,0.0173387
0.4478336,0.00511893,5.11893,18.1045,0.0181045
0.449853,0.00538996,5.38996,19.0631,0.0190631
0.451852,0.00571673,5.71673,20.2188,0.0202188
0.453853,0.00610954,6.10954,21.6081,0.0216081
0.455868,0.00657454,6.57454,23.2527,0.0232527
0.457834,0.00712413,7.12413,25.1965,0.0251965
0.45974,0.00777837,7.77837,27.5104,0.0275104
0.461746,0.00862714,8.62714,30.5123,0.0305123
0.463796,0.00969192,9.69192,34.2782,0.0342782
0.46581,0.0108839,10.8839,38.4939,0.0384939
0.467741,0.0123023,12.3023,43.5105,0.0435105
0.469737,0.0142094,14.2094,50.2553,0.0502553
0.471708,0.0167392,16.7392,59.2027,0.0592027
0.473646,0.0201227,20.1227,71.1696,0.0711696
0.475604,0.0245698,24.5698,86.8977,0.0868977
0.4775776,0.0300709,30.0709,106.354,0.106354
0.479494,0.0363572,36.3572,128.587,0.128587
0.4814823,0.0430127,43.0127,152.126,0.152126
0.483454,0.0496836,49.6836,175.72,0.17572
0.485447,0.0561194,56.1194,198.482,0.198482
0.48747,0.0619723,61.9723,219.182,0.219182
0.489496,0.066399,66.399,234.839,0.234839
0.491633,0.0673106,67.3106,238.063,0.238063
0.493866,0.0612109,61.2109,216.489,0.216489
0.495542,0.0519973,51.9973,183.903,0.183903