File: literature/rawdata/engstfeld_2018_polycrystalline_17743/engstfeld_2018_polycrystalline_17743_f4b_4.mpt
EC-Lab ASCII FILE
Nb header lines : 3
mode	ox/red	error	control changes	Ns changes	counter inc.	time/s	control/V	Ewe/V	<I>/mA	cycle number	(Q-Qo)/C	P/W
2	1	0	1	0	0	268.351	-0.199945	-0.195302	-0.0042395	11	-0.0014379	8.27984e-07
2	1	0	1	0	0	268.402	-0.197397	-0.197814	-0.00394897	11	-0.00143812	7.8116e-07
2	1	0	1	0	0	268.462	-0.194398	-0.198182	-0.00211013	11	-0.00143829	4.18191e-07
2	1	0	1	0	0	268.522	-0.1914	-0.195436	-0.00115019	11	-0.00143839	2.24787e-07
2	1	0	1	0	0	268.582	-0.188401	-0.192183	-0.00107853	11	-0.00143845	2.07275e-07
2	1	0	1	0	0	268.642	-0.185402	-0.189114	-0.000886232	11	-0.00143851	1.67599e-07
2	1	0	0	0	0	268.701	-0.182404	-0.18622	-0.000458942	11	-0.00143855	8.54644e-08
2	1	0	0	0	0	268.761	-0.179405	-0.183168	-0.00035936	11	-0.00143858	6.58232e-08
2	1	0	0	0	0	268.821	-0.176407	-0.180188	0.000104103	11	-0.00143858	1.87582e-08
2	1	0	0	0	0	268.881	-0.173408	-0.177206	0.000287887	11	-0.00143857	5.10154e-08
2	1	0	0	0	0	268.941	-0.17041	-0.174194	0.000778241	11	-0.00143854	1.35565e-07
2	1	0	0	0	0	269.001	-0.167411	-0.171296	0.000921502	11	-0.00143849	1.57849e-07
2	1	0	0	0	0	269.061	-0.164417	-0.168251	0.00141091	11	-0.00143842	2.37387e-07
2	1	0	1	0	0	269.121	-0.161414	-0.16525	0.00149805	11	-0.00143833	2.47552e-07
2	1	0	1	0	0	269.181	-0.158415	-0.162251	0.00198684	11	-0.00143823	3.22367e-07
2	1	0	1	0	0	269.241	-0.155417	-0.159222	0.0020119	11	-0.0014381	3.20338e-07
2	1	0	1	0	0	269.301	-0.152418	-0.156298	0.00237697	11	-0.00143797	3.71515e-07
2	1	0	1	0	0	269.361	-0.14942	-0.153237	0.00252498	11	-0.00143782	3.86919e-07
2	1	0	1	0	0	269.421	-0.146421	-0.15025	0.00261104	11	-0.00143767	3.92308e-07
2	1	0	1	0	0	269.481	-0.143427	-0.147246	0.00281182	11	-0.00143751	4.1403e-07
2	1	0	0	0	0	269.541	-0.140424	-0.144294	0.00270028	11	-0.00143734	3.89634e-07
2	1	0	0	0	0	269.601	-0.137425	-0.141311	0.00289798	11	-0.00143718	4.09518e-07
2	1	0	0	0	0	269.661	-0.134427	-0.13825	0.00277469	11	-0.001437	3.83601e-07
2	1	0	0	0	0	269.721	-0.131428	-0.13526	0.00290395	11	-0.00143684	3.92788e-07
2	1	0	0	0	0	269.781	-0.12843	-0.132186	0.00277618	11	-0.00143666	3.66973e-07
2	1	0	0	0	0	269.841	-0.125431	-0.12925	0.00274496	11	-0.0014365	3.54787e-07
2	1	0	0	0	0	269.901	-0.122436	-0.126245	0.00269802	11	-0.00143633	3.40613e-07
2	1	0	1	0	0	269.961	-0.119434	-0.123305	0.00257656	11	-0.00143618	3.17702e-07
2	1	0	1	0	0	270.021	-0.116435	-0.120257	0.00256699	11	-0.00143602	3.08698e-07
2	1	0	1	0	0	270.081	-0.113437	-0.117256	0.00234446	11	-0.00143588	2.74902e-07
2	1	0	1	0	0	270.141	-0.110438	-0.114245	0.00238119	11	-0.00143573	2.72038e-07
2	1	0	1	0	0	270.201	-0.10744	-0.111259	0.00212954	11	-0.0014356	2.36931e-07
2	1	0	1	0	0	270.261	-0.104441	-0.108233	0.00213553	11	-0.00143547	2.31136e-07
2	1	0	1	0	0	270.321	-0.101445	-0.10528	0.00195304	11	-0.00143535	2.05616e-07
2	1	0	0	0	0	270.381	-0.098444	-0.102238	0.00190725	11	-0.00143523	1.94993e-07
2	1	0	0	0	0	270.441	-0.0954454	-0.0992848	0.0017218	11	-0.00143513	1.70948e-07
2	1	0	0	0	0	270.501	-0.0924468	-0.0962066	0.00157912	11	-0.00143502	1.51922e-07
2	1	0	0	0	0	270.561	-0.0894483	-0.09327	0.00155053	11	-0.00143493	1.44618e-07
2	1	0	0	0	0	270.621	-0.0864497	-0.0902693	0.00131188	11	-0.00143485	1.18422e-07
2	1	0	0	0	0	270.681	-0.0834511	-0.0872817	0.00130875	11	-0.00143477	1.1423e-07
2	1	0	0	0	0	270.74	-0.0804537	-0.08433	0.00115863	11	-0.0014347	9.7707e-08
2	1	0	1	0	0	270.8	-0.077454	-0.081269	0.0010418	11	-0.00143463	8.46658e-08
2	1	0	1	0	0	270.86	-0.0744554	-0.0783084	0.00101559	11	-0.00143457	7.95296e-08
2	1	0	1	0	0	270.92	-0.0714569	-0.075334	0.000867003	11	-0.00143451	6.53148e-08
2	1	0	1	0	0	270.98	-0.0684583	-0.0722785	0.000763575	11	-0.00143446	5.51901e-08
2	1	0	1	0	0	271.04	-0.0654597	-0.0692897	0.000761719	11	-0.00143441	5.27793e-08
2	1	0	1	0	0	271.1	-0.0624611	-0.0663081	0.000687887	11	-0.00143437	4.56125e-08
2	1	0	1	0	0	271.16	-0.0594626	-0.0633568	0.000588684	11	-0.00143434	3.72971e-08
2	1	0	0	0	0	271.22	-0.056464	-0.0603482	0.000543221	11	-0.0014343	3.27824e-08
2	1	0	0	0	0	271.28	-0.0534655	-0.0572961	0.000490022	11	-0.00143427	2.80764e-08
2	1	0	0	0	0	271.34	-0.0504669	-0.0543255	0.000423589	11	-0.00143424	2.30117e-08
2	1	0	0	0	0	271.4	-0.0474683	-0.0513144	0.000359544	11	-0.00143422	1.84498e-08
2	1	0	0	0	0	271.46	-0.0444698	-0.0483417	0.000329099	11	-0.0014342	1.59092e-08
2	1	0	0	0	0	271.52	-0.0414712	-0.0453446	0.000300775	11	-0.00143418	1.36385e-08
2	1	0	0	0	0	271.58	-0.0384726	-0.0423384	0.000252423	11	-0.00143416	1.06872e-08
2	1	0	1	0	0	271.64	-0.0354741	-0.0393376	0.000222462	11	-0.00143415	8.75112e-09
2	1	0	1	0	0	271.7	-0.0324755	-0.0363568	0.000187906	11	-0.00143414	6.83168e-09
2	1	0	1	0	0	271.76	-0.0294769	-0.0333744	0.000156719	11	-0.00143413	5.23039e-09
2	1	0	1	0	0	271.82	-0.0264784	-0.0303492	0.000100152	11	-0.00143412	3.03953e-09
2	1	0	1	0	0	271.88	-0.0234798	-0.0273513	8.98885e-05	11	-0.00143411	2.45857e-09
2	1	0	1	0	0	271.94	-0.0204812	-0.024372	9.54842e-05	11	-0.00143411	2.32714e-09
2	1	0	1	0	0	272	-0.0174815	-0.0213759	8.89025e-05	11	-0.0014341	1.90037e-09
2	1	0	0	0	0	272.06	-0.0144841	-0.0183495	6.13e-05	11	-0.0014341	1.12483e-09
2	1	0	0	0	0	272.12	-0.0114855	-0.015363	1.83376e-05	11	-0.00143409	2.81721e-10
2	1	0	0	0	0	272.18	-0.00848696	-0.0123443	7.38488e-06	11	-0.00143409	9.11608e-11
2	1	0	0	0	0	272.24	-0.00548839	-0.0093864	-6.37897e-06	11	-0.00143409	5.98756e-11
2	1	0	0	0	0	272.3	-0.00248982	-0.00640308	1.84172e-05	11	-0.00143409	1.17927e-10
2	1	0	0	0	0	272.36	0.000508743	-0.00337349	3.00908e-06	11	-0.00143409	1.01511e-11
2	1	0	0	0	0	272.42	0.00350955	-0.0004052	-5.1795e-06	11	-0.00143409	2.09873e-12
2	1	0	1	0	0	272.48	0.00650587	0.00260164	-8.10279e-06	11	-0.00143409	2.10805e-11
2	1	0	1	0	0	272.54	0.00950444	0.00562953	-4.32417e-05	11	-0.0014341	2.43431e-10
2	1	0	1	0	0	272.6	0.012503	0.00861964	-5.91537e-05	11	-0.0014341	5.09884e-10
2	1	0	1	0	0	272.66	0.0155016	0.0116422	-3.25277e-05	11	-0.0014341	3.78694e-10
2	1	0	1	0	0	272.72	0.0185001	0.0146219	-4.55755e-05	11	-0.0014341	6.66402e-10
2	1	0	1	0	0	272.78	0.0214987	0.0176099	-5.97637e-05	11	-0.00143411	1.05243e-09
2	1	0	1	0	0	272.839	0.0245006	0.0206138	-5.72772e-05	11	-0.00143411	1.1807e-09
2	1	0	0	0	0	272.899	0.0274958	0.0235882	-6.26544e-05	11	-0.00143411	1.47791e-09
2	1	0	0	0	0	272.959	0.0304944	0.0265938	-2.93983e-05	11	-0.00143412	7.81814e-10
2	1	0	0	0	0	273.019	0.033493	0.0295738	-5.59978e-05	11	-0.00143412	1.65607e-09
2	1	0	0	0	0	273.079	0.0364915	0.0326112	-6.81705e-05	11	-0.00143412	2.22312e-09
2	1	0	0	0	0	273.139	0.0394901	0.0356164	-7.26789e-05	11	-0.00143413	2.58856e-09
2	1	0	0	0	0	273.199	0.0424887	0.0386281	-3.20768e-05	11	-0.00143413	1.23907e-09
2	1	0	0	0	0	273.259	0.0454917	0.0415828	-2.58354e-05	11	-0.00143413	1.07431e-09
2	1	0	1	0	0	273.319	0.0484858	0.0445364	-1.38046e-05	11	-0.00143413	6.14807e-10
2	1	0	1	0	0	273.379	0.0514843	0.0475934	-2.26622e-05	11	-0.00143413	1.07857e-09
2	1	0	1	0	0	273.439	0.0544829	0.0506096	-2.04346e-05	11	-0.00143413	1.03419e-09
2	1	0	1	0	0	273.499	0.0574815	0.0535734	-1.5661e-05	11	-0.00143414	8.39011e-10
2	1	0	1	0	0	273.559	0.06048	0.0565478	-2.10976e-05	11	-0.00143414	1.19302e-09
2	1	0	1	0	0	273.619	0.0634786	0.0596024	-7.81105e-06	11	-0.00143414	4.65558e-10
2	1	0	1	0	0	273.679	0.0664817	0.0625576	-2.68365e-05	11	-0.00143414	1.67883e-09
2	1	0	0	0	0	273.739	0.0694757	0.0655659	-3.90251e-05	11	-0.00143414	2.55871e-09
2	1	0	0	0	0	273.799	0.0724743	0.0685743	-1.6987e-05	11	-0.00143414	1.16487e-09
2	1	0	0	0	0	273.859	0.0754729	0.0715858	-1.34333e-05	11	-0.00143414	9.61633e-10
2	1	0	0	0	0	273.919	0.0784714	0.0745725	-3.754e-05	11	-0.00143415	2.79945e-09
2	1	0	0	0	0	273.979	0.08147	0.0775306	-3.15464e-05	11	-0.00143415	2.44581e-09
2	1	0	0	0	0	274.039	0.0844686	0.0805307	-3.48614e-05	11	-0.00143415	2.80742e-09
2	1	0	1	0	0	274.099	0.0874671	0.0835624	-2.67691e-05	11	-0.00143415	2.23689e-09
2	1	0	1	0	0	274.159	0.0904657	0.0865427	-3.44106e-05	11	-0.00143415	2.97799e-09
2	1	0	1	0	0	274.219	0.0934643	0.0895515	-1.60588e-05	11	-0.00143415	1.43809e-09
2	1	0	1	0	0	274.279	0.0964628	0.0925308	1.22646e-05	11	-0.00143415	1.13485e-09
2	1	0	1	0	0	274.339	0.0994614	0.0955859	2.9423e-05	11	-0.00143415	2.81242e-09
2	1	0	1	0	0	274.399	0.10246	0.098556	9.74516e-06	11	-0.00143415	9.60444e-10
2	1	0	1	0	0	274.459	0.105459	0.101536	-4.99993e-06	11	-0.00143415	5.07675e-10
2	1	0	0	0	0	274.519	0.108457	0.104537	-2.74575e-06	11	-0.00143415	2.87032e-10
2	1	0	0	0	0	274.579	0.111456	0.107527	1.43596e-05	11	-0.00143415	1.54404e-09
2	1	0	0	0	0	274.639	0.114454	0.110542	4.48046e-05	11	-0.00143415	4.9528e-09
2	1	0	0	0	0	274.699	0.117453	0.113507	5.99209e-05	11	-0.00143415	6.80145e-09
2	1	0	0	0	0	274.759	0.120451	0.116492	3.42761e-05	11	-0.00143414	3.99291e-09
2	1	0	0	0	0	274.819	0.12345	0.119525	3.49126e-05	11	-0.00143414	4.17292e-09
2	1	0	0	0	0	274.879	0.126448	0.122523	3.89702e-05	11	-0.00143414	4.77474e-09
2	1	0	1	0	0	274.938	0.129447	0.125513	4.44068e-05	11	-0.00143414	5.57365e-09
2	1	0	1	0	0	274.998	0.132446	0.128494	3.79359e-05	11	-0.00143413	4.87452e-09
2	1	0	1	0	0	275.058	0.135444	0.13147	2.93169e-05	11	-0.00143413	3.8543e-09
2	1	0	1	0	0	275.118	0.138443	0.134466	4.99229e-05	11	-0.00143413	6.71292e-09
2	1	0	1	0	0	275.178	0.141441	0.137493	4.50698e-05	11	-0.00143413	6.19677e-09
2	1	0	1	0	0	275.238	0.14444	0.140518	2.71688e-05	11	-0.00143413	3.8177e-09
2	1	0	1	0	0	275.298	0.147438	0.143499	3.28706e-05	11	-0.00143412	4.71689e-09
2	1	0	0	0	0	275.358	0.150437	0.146478	3.88641e-05	11	-0.00143412	5.69274e-09
2	1	0	0	0	0	275.418	0.153436	0.14948	6.90703e-05	11	-0.00143412	1.03246e-08
2	1	0	0	0	0	275.478	0.156434	0.152461	5.60225e-05	11	-0.00143411	8.54127e-09
2	1	0	0	0	0	275.538	0.159433	0.155499	6.01066e-05	11	-0.00143411	9.34649e-09
2	1	0	0	0	0	275.598	0.162431	0.158502	5.29727e-05	11	-0.00143411	8.3963e-09
2	1	0	0	0	0	275.658	0.16543	0.16149	6.8646e-05	11	-0.0014341	1.10857e-08
2	1	0	0	0	0	275.718	0.168428	0.164467	5.76933e-05	11	-0.0014341	9.48866e-09
2	1	0	1	0	0	275.778	0.171427	0.167492	3.58143e-05	11	-0.0014341	5.99861e-09
2	1	0	1	0	0	275.838	0.174426	0.170519	4.36112e-05	11	-0.00143409	7.43654e-09
2	1	0	1	0	0	275.898	0.177424	0.173493	1.81255e-05	11	-0.00143409	3.14464e-09
2	1	0	1	0	0	275.958	0.180423	0.17646	4.64753e-05	11	-0.00143409	8.20106e-09
2	1	0	1	0	0	276.018	0.183421	0.179468	4.4778e-05	11	-0.00143409	8.03624e-09
2	1	0	1	0	0	276.078	0.18642	0.182492	4.7377e-05	11	-0.00143409	8.6459e-09
2	1	0	1	0	0	276.138	0.189418	0.185481	6.50923e-05	11	-0.00143408	1.20734e-08
2	1	0	0	0	0	276.198	0.192417	0.188467	4.3346e-05	11	-0.00143408	8.16927e-09
2	1	0	0	0	0	276.258	0.195415	0.191473	4.3346e-05	11	-0.00143408	8.29957e-09
2	1	0	0	0	0	276.318	0.198414	0.194447	3.26054e-05	11	-0.00143407	6.34002e-09
2	1	0	0	0	0	276.378	0.201413	0.197452	7.5223e-05	11	-0.00143407	1.4853e-08
2	1	0	0	0	0	276.438	0.204411	0.200463	3.9368e-05	11	-0.00143407	7.89181e-09
2	1	0	0	0	0	276.498	0.20741	0.203427	4.31603e-05	11	-0.00143407	8.77999e-09
2	1	0	0	0	0	276.558	0.210408	0.206438	5.04533e-05	11	-0.00143406	1.04155e-08
2	1	0	1	0	0	276.618	0.213407	0.20943	3.76176e-05	11	-0.00143406	7.87825e-09
2	1	0	1	0	0	276.678	0.216405	0.212431	6.51454e-05	11	-0.00143406	1.38389e-08
2	1	0	1	0	0	276.738	0.219404	0.215479	6.46415e-05	11	-0.00143405	1.39289e-08
2	1	0	1	0	0	276.798	0.222403	0.218517	5.01351e-05	11	-0.00143405	1.09554e-08
2	1	0	1	0	0	276.858	0.225401	0.221489	2.32703e-05	11	-0.00143405	5.15413e-09
2	1	0	1	0	0	276.918	0.2284	0.22443	4.23117e-05	11	-0.00143405	9.496e-09
2	1	0	1	0	0	276.978	0.231398	0.22742	0.000112324	11	-0.00143404	2.55449e-08
2	1	0	0	0	0	277.037	0.234397	0.230395	0.000106808	11	-0.00143403	2.46081e-08
2	1	0	0	0	0	277.097	0.237395	0.233458	8.80586e-05	11	-0.00143403	2.0558e-08
2	1	0	0	0	0	277.157	0.240394	0.236472	5.36887e-05	11	-0.00143402	1.26959e-08
2	1	0	0	0	0	277.217	0.243393	0.239433	6.39255e-05	11	-0.00143402	1.53059e-08
2	1	0	0	0	0	277.277	0.246391	0.242385	8.13226e-05	11	-0.00143402	1.97114e-08
2	1	0	0	0	0	277.337	0.24939	0.245403	9.02598e-05	11	-0.00143401	2.215e-08
2	1	0	0	0	0	277.397	0.252388	0.248414	9.95153e-05	11	-0.00143401	2.4721e-08
2	1	0	1	0	0	277.457	0.255387	0.251401	9.97274e-05	11	-0.001434	2.50716e-08
2	1	0	1	0	0	277.517	0.258385	0.254413	9.01007e-05	11	-0.00143399	2.29228e-08
2	1	0	1	0	0	277.577	0.261384	0.257457	0.000103361	11	-0.00143399	2.66109e-08
2	1	0	1	0	0	277.637	0.264382	0.260388	0.000143485	11	-0.00143398	3.73618e-08
2	1	0	1	0	0	277.697	0.267381	0.263403	0.000147941	11	-0.00143397	3.8968e-08
2	1	0	1	0	0	277.757	0.27038	0.266418	0.000150778	11	-0.00143396	4.017e-08
2	1	0	1	0	0	277.817	0.273378	0.269349	0.000137651	11	-0.00143395	3.70761e-08
2	1	0	0	0	0	277.877	0.276377	0.272358	0.00013309	11	-0.00143394	3.6248e-08
2	1	0	0	0	0	277.937	0.279375	0.275398	0.000133487	11	-0.00143394	3.67622e-08
2	1	0	0	0	0	277.997	0.282374	0.278394	0.000135715	11	-0.00143393	3.77823e-08
2	1	0	0	0	0	278.057	0.285372	0.281388	0.000132665	11	-0.00143392	3.73304e-08
2	1	0	0	0	0	278.117	0.288371	0.284373	0.000175071	11	-0.00143391	4.97854e-08
2	1	0	0	0	0	278.177	0.29137	0.287369	0.000201538	11	-0.0014339	5.79156e-08
2	1	0	0	0	0	278.237	0.294368	0.290388	0.00019215	11	-0.00143389	5.5798e-08
2	1	0	1	0	0	278.297	0.297367	0.293413	0.000143273	11	-0.00143388	4.20382e-08
2	1	0	1	0	0	278.357	0.300365	0.296396	0.000188914	11	-0.00143387	5.59933e-08
2	1	0	1	0	0	278.417	0.303364	0.299378	0.000202917	11	-0.00143386	6.07487e-08
2	1	0	1	0	0	278.477	0.306362	0.30234	0.000204906	11	-0.00143384	6.19512e-08
2	1	0	1	0	0	278.537	0.309361	0.305381	0.00021379	11	-0.00143383	6.52874e-08
2	1	0	1	0	0	278.597	0.31236	0.308346	0.000190903	11	-0.00143382	5.88642e-08
2	1	0	1	0	0	278.657	0.315358	0.311341	0.000204826	11	-0.00143381	6.37707e-08
2	1	0	0	0	0	278.717	0.318357	0.314351	0.000209494	11	-0.0014338	6.58546e-08
2	1	0	0	0	0	278.777	0.321355	0.317332	0.000247285	11	-0.00143378	7.84714e-08
2	1	0	0	0	0	278.837	0.324354	0.32034	0.000260677	11	-0.00143377	8.35053e-08
2	1	0	0	0	0	278.897	0.327352	0.323356	0.000272054	11	-0.00143375	8.79703e-08
2	1	0	0	0	0	278.957	0.330351	0.326313	0.000314725	11	-0.00143373	1.02699e-07
2	1	0	0	0	0	279.017	0.333349	0.329327	0.000320559	11	-0.00143371	1.05569e-07
2	1	0	0	0	0	279.077	0.336348	0.332369	0.000334853	11	-0.00143369	1.11295e-07
2	1	0	1	0	0	279.136	0.339347	0.335343	0.000324166	11	-0.00143367	1.08707e-07
2	1	0	1	0	0	279.196	0.342345	0.338311	0.000373864	11	-0.00143365	1.26483e-07
2	1	0	1	0	0	279.256	0.345344	0.341305	0.000424571	11	-0.00143363	1.44908e-07
2	1	0	1	0	0	279.316	0.348342	0.344307	0.000409507	11	-0.0014336	1.40996e-07
2	1	0	1	0	0	279.376	0.351341	0.347333	0.000407359	11	-0.00143358	1.41489e-07
2	1	0	1	0	0	279.436	0.354339	0.350309	0.000428867	11	-0.00143355	1.50236e-07
2	1	0	1	0	0	279.496	0.357338	0.353282	0.000531897	11	-0.00143353	1.87909e-07
2	1	0	0	0	0	279.556	0.360337	0.356253	0.000549108	11	-0.00143349	1.95621e-07
2	1	0	0	0	0	279.616	0.363335	0.359294	0.000543831	11	-0.00143346	1.95395e-07
2	1	0	0	0	0	279.676	0.366334	0.362317	0.000604429	11	-0.00143343	2.18995e-07
2	1	0	0	0	0	279.736	0.369332	0.365323	0.000630551	11	-0.00143339	2.30355e-07
2	1	0	0	0	0	279.796	0.372331	0.368313	0.000653889	11	-0.00143335	2.40836e-07
2	1	0	0	0	0	279.856	0.375329	0.371291	0.000688975	11	-0.00143331	2.5581e-07
2	1	0	0	0	0	279.916	0.378328	0.374301	0.00076506	11	-0.00143327	2.86363e-07
2	1	0	1	0	0	279.976	0.381327	0.377289	0.000840828	11	-0.00143322	3.17236e-07
2	1	0	1	0	0	280.036	0.384325	0.380301	0.000854778	11	-0.00143317	3.25073e-07
2	1	0	1	0	0	280.096	0.387324	0.383281	0.000915004	11	-0.00143311	3.50704e-07
2	1	0	1	0	0	280.156	0.390322	0.386282	0.00100141	11	-0.00143306	3.86826e-07
2	1	0	1	0	0	280.216	0.393321	0.38928	0.00106863	11	-0.00143299	4.15998e-07
2	1	0	1	0	0	280.276	0.396319	0.392263	0.00111311	11	-0.00143293	4.36631e-07
2	1	0	1	0	0	280.336	0.399318	0.395236	0.0012385	11	-0.00143286	4.89497e-07
2	1	0	0	0	0	280.396	0.402316	0.398246	0.00137438	11	-0.00143278	5.47342e-07
2	1	0	0	0	0	280.456	0.405315	0.401281	0.0014702	11	-0.00143269	5.89963e-07
2	1	0	0	0	0	280.516	0.408314	0.404252	0.00151783	11	-0.0014326	6.13586e-07
2	1	0	0	0	0	280.576	0.411312	0.407207	0.00170238	11	-0.00143251	6.93223e-07
2	1	0	0	0	0	280.636	0.414311	0.410241	0.00187004	11	-0.0014324	7.67168e-07
2	1	0	0	0	0	280.696	0.417309	0.413283	0.0018815	11	-0.00143229	7.77592e-07
2	1	0	0	0	0	280.756	0.420308	0.41625	0.00192024	11	-0.00143217	7.99301e-07
2	1	0	1	0	0	280.816	0.423306	0.419225	0.00203059	11	-0.00143206	8.51276e-07
2	1	0	1	0	0	280.876	0.426305	0.422234	0.00212744	11	-0.00143193	8.9828e-07
2	1	0	1	0	0	280.936	0.429304	0.42523	0.00205348	11	-0.00143181	8.73201e-07
2	1	0	1	0	0	280.996	0.432302	0.428185	0.00208339	11	-0.00143168	8.92079e-07
2	1	0	1	0	0	281.056	0.435301	0.431219	0.00218131	11	-0.00143155	9.40621e-07
2	1	0	1	0	0	281.116	0.438299	0.434211	0.00224864	11	-0.00143142	9.76385e-07
2	1	0	1	0	0	281.176	0.441298	0.437229	0.00220345	11	-0.00143129	9.63413e-07
2	1	0	0	0	0	281.235	0.444296	0.440186	0.00233748	11	-0.00143115	1.02893e-06
2	1	0	0	0	0	281.295	0.447295	0.443157	0.00248878	11	-0.00143101	1.10292e-06
2	1	0	0	0	0	281.355	0.450293	0.446192	0.00262703	11	-0.00143085	1.17216e-06
2	1	0	0	0	0	281.415	0.453292	0.449196	0.00269738	11	-0.00143069	1.21166e-06
2	1	0	0	0	0	281.475	0.456291	0.452177	0.00307498	11	-0.00143052	1.39043e-06
2	1	0	0	0	0	281.535	0.459289	0.455147	0.00348903	11	-0.00143032	1.58802e-06
2	1	0	0	0	0	281.595	0.462288	0.45811	0.00391256	11	-0.0014301	1.79238e-06
2	1	0	1	0	0	281.655	0.465286	0.461073	0.00437867	11	-0.00142985	2.01889e-06
2	1	0	1	0	0	281.715	0.468285	0.463962	0.00539046	11	-0.00142956	2.50097e-06
2	1	0	1	0	0	281.775	0.471283	0.466957	0.00667713	11	-0.0014292	3.11794e-06
2	1	0	1	0	0	281.835	0.474282	0.469948	0.00810563	11	-0.00142876	3.80922e-06
2	1	0	1	0	0	281.895	0.477281	0.472759	0.0101612	11	-0.00142821	4.8038e-06
2	1	0	1	0	0	281.955	0.480279	0.475414	0.0139893	11	-0.00142749	6.65073e-06
2	1	0	1	0	0	282.015	0.483278	0.478047	0.0201882	11	-0.00142647	9.6509e-06
2	1	0	0	0	0	282.075	0.486276	0.481086	0.0270388	11	-0.00142505	1.3008e-05
2	1	0	0	0	0	282.135	0.489275	0.485298	0.0276645	11	-0.00142336	1.34255e-05
2	1	0	0	0	0	282.195	0.492273	0.48986	0.0154734	11	-0.00142202	7.57981e-06
2	1	0	0	0	0	282.255	0.495272	0.491988	0.00474836	11	-0.00142149	2.33613e-06
2	1	0	0	0	0	282.315	0.498271	0.494197	0.00540969	11	-0.0014212	2.67345e-06
2	1	0	0	0	0	282.349	0.50002	0.496003	0.00562371	11	-0.00142101	2.78938e-06
2	0	0	0	0	0	282.382	0.49837	0.497629	0.00527836	11	-0.00142083	2.62666e-06
2	0	0	0	0	0	282.442	0.495372	0.49953	0.00270752	11	-0.00142057	1.35249e-06
2	0	0	0	0	0	282.502	0.492373	0.497483	-0.000939352	11	-0.00142054	4.67312e-07
2	0	0	0	0	0	282.562	0.489375	0.4941	-0.00180435	11	-0.00142063	8.91531e-07
2	0	0	0	0	0	282.622	0.486376	0.490945	-0.00239734	11	-0.00142075	1.17696e-06
2	0	0	1	0	0	282.682	0.483378	0.488056	-0.00318337	11	-0.00142092	1.55366e-06
2	0	0	1	0	0	282.742	0.480379	0.485173	-0.00458786	11	-0.00142115	2.22591e-06
2	0	0	1	0	0	282.802	0.477381	0.48227	-0.00646651	11	-0.00142148	3.11861e-06
2	0	0	1	0	0	282.862	0.474382	0.479396	-0.00886365	11	-0.00142194	4.2492e-06
2	0	0	1	0	0	282.922	0.471383	0.476545	-0.0121433	11	-0.00142257	5.78682e-06
2	0	0	1	0	0	282.982	0.468385	0.473634	-0.0158647	11	-0.00142341	7.51406e-06
2	0	0	1	0	0	283.042	0.465386	0.470279	-0.0177622	11	-0.00142444	8.3532e-06
2	0	0	0	0	0	283.101	0.462388	0.466822	-0.0158385	11	-0.00142546	7.39374e-06
2	0	0	0	0	0	283.161	0.459389	0.463974	-0.0138241	11	-0.00142633	6.41401e-06
2	0	0	0	0	0	283.221	0.456391	0.461254	-0.0149599	11	-0.00142719	6.90033e-06
2	0	0	0	0	0	283.281	0.453392	0.458046	-0.015662	11	-0.00142812	7.17391e-06
2	0	0	0	0	0	283.341	0.450393	0.454657	-0.0131016	11	-0.00142899	5.95675e-06
2	0	0	0	0	0	283.401	0.447395	0.451673	-0.00968365	11	-0.00142967	4.37385e-06
2	0	0	0	0	0	283.461	0.444396	0.448772	-0.00772412	11	-0.00143018	3.46637e-06
2	0	0	1	0	0	283.521	0.441398	0.445755	-0.00620606	11	-0.0014306	2.76638e-06
2	0	0	1	0	0	283.581	0.438399	0.4428	-0.00491902	11	-0.00143093	2.17814e-06
2	0	0	1	0	0	283.641	0.435401	0.439853	-0.00407088	11	-0.0014312	1.79059e-06
2	0	0	1	0	0	283.701	0.432402	0.436892	-0.00367661	11	-0.00143143	1.60628e-06
2	0	0	1	0	0	283.761	0.429404	0.433905	-0.0033702	11	-0.00143164	1.46235e-06
2	0	0	1	0	0	283.821	0.426405	0.430959	-0.00317223	11	-0.00143183	1.3671e-06
2	0	0	1	0	0	283.881	0.423406	0.427949	-0.00310985	11	-0.00143202	1.33086e-06
2	0	0	0	0	0	283.941	0.420408	0.424931	-0.00299873	11	-0.0014322	1.27425e-06
2	0	0	0	0	0	284.001	0.417409	0.421946	-0.00289141	11	-0.00143238	1.22002e-06
2	0	0	0	0	0	284.061	0.414411	0.418973	-0.00285131	11	-0.00143255	1.19462e-06
2	0	0	0	0	0	284.121	0.411412	0.416	-0.00295943	11	-0.00143273	1.23112e-06
2	0	0	0	0	0	284.181	0.408414	0.412983	-0.00292283	11	-0.0014329	1.20708e-06
2	0	0	0	0	0	284.241	0.405415	0.409954	-0.00283927	11	-0.00143308	1.16397e-06
2	0	0	0	0	0	284.301	0.402416	0.406985	-0.0028642	11	-0.00143325	1.16568e-06
2	0	0	1	0	0	284.361	0.399418	0.403992	-0.00282901	11	-0.00143342	1.14289e-06
2	0	0	1	0	0	284.421	0.396419	0.400973	-0.00263658	11	-0.00143358	1.0572e-06
2	0	0	1	0	0	284.481	0.393421	0.397928	-0.00241248	11	-0.00143373	9.59995e-07
2	0	0	1	0	0	284.541	0.390422	0.394923	-0.00227471	11	-0.00143387	8.98337e-07
2	0	0	1	0	0	284.601	0.387424	0.391918	-0.00210941	11	-0.00143401	8.26718e-07
2	0	0	1	0	0	284.661	0.384425	0.388954	-0.00196032	11	-0.00143413	7.62474e-07
2	0	0	1	0	0	284.721	0.381426	0.385971	-0.00186058	11	-0.00143424	7.18127e-07
2	0	0	0	0	0	284.781	0.378428	0.382963	-0.00180608	11	-0.00143435	6.91662e-07
2	0	0	0	0	0	284.841	0.375429	0.379986	-0.00172331	11	-0.00143446	6.54833e-07
2	0	0	0	0	0	284.901	0.372431	0.377002	-0.00163168	11	-0.00143456	6.15147e-07
2	0	0	0	0	0	284.961	0.369432	0.374012	-0.0015665	11	-0.00143465	5.85888e-07
2	0	0	0	0	0	285.021	0.366434	0.371017	-0.00151125	11	-0.00143475	5.60701e-07
2	0	0	0	0	0	285.081	0.363435	0.368002	-0.0014344	11	-0.00143483	5.27862e-07
2	0	0	0	0	0	285.141	0.360436	0.364972	-0.00137107	11	-0.00143492	5.00402e-07
2	0	0	1	0	0	285.2	0.357438	0.362006	-0.00134789	11	-0.001435	4.87945e-07
2	0	0	1	0	0	285.26	0.354439	0.359025	-0.00134235	11	-0.00143508	4.81937e-07
2	0	0	1	0	0	285.32	0.351441	0.356014	-0.00130342	11	-0.00143516	4.64035e-07
2	0	0	1	0	0	285.38	0.348442	0.353039	-0.00127661	11	-0.00143524	4.50691e-07
2	0	0	1	0	0	285.44	0.345444	0.350032	-0.00124709	11	-0.00143531	4.36521e-07
2	0	0	1	0	0	285.5	0.342445	0.346995	-0.00121882	11	-0.00143539	4.22924e-07
2	0	0	1	0	0	285.56	0.339447	0.343996	-0.00115247	11	-0.00143546	3.96444e-07
2	0	0	0	0	0	285.62	0.336448	0.341022	-0.00107354	11	-0.00143552	3.66102e-07
2	0	0	0	0	0	285.68	0.333449	0.337999	-0.0010689	11	-0.00143559	3.61288e-07
2	0	0	0	0	0	285.74	0.330451	0.335035	-0.00107163	11	-0.00143565	3.59035e-07
2	0	0	0	0	0	285.8	0.327452	0.33205	-0.00104617	11	-0.00143572	3.47382e-07
2	0	0	0	0	0	285.86	0.324454	0.329041	-0.00105779	11	-0.00143578	3.48056e-07
2	0	0	0	0	0	285.92	0.321455	0.326035	-0.00103077	11	-0.00143584	3.36066e-07
2	0	0	0	0	0	285.98	0.318457	0.323039	-0.00101732	11	-0.0014359	3.28634e-07
2	0	0	1	0	0	286.04	0.315458	0.320059	-0.000987061	11	-0.00143596	3.15918e-07
2	0	0	1	0	0	286.1	0.312459	0.317061	-0.000990005	11	-0.00143602	3.13892e-07
2	0	0	1	0	0	286.16	0.309461	0.314056	-0.000979901	11	-0.00143608	3.07744e-07
2	0	0	1	0	0	286.22	0.306462	0.311059	-0.000951259	11	-0.00143614	2.95898e-07
2	0	0	1	0	0	286.28	0.303464	0.308063	-0.000922909	11	-0.0014362	2.84314e-07
2	0	0	1	0	0	286.34	0.300465	0.305112	-0.00093967	11	-0.00143625	2.86705e-07
2	0	0	1	0	0	286.4	0.297467	0.302093	-0.000964599	11	-0.00143631	2.91398e-07
2	0	0	0	0	0	286.46	0.294468	0.299099	-0.000936594	11	-0.00143637	2.80135e-07
2	0	0	0	0	0	286.52	0.29147	0.29608	-0.000913733	11	-0.00143642	2.70538e-07
2	0	0	0	0	0	286.58	0.288471	0.293085	-0.000942004	11	-0.00143648	2.76087e-07
2	0	0	0	0	0	286.64	0.285472	0.290066	-0.000920098	11	-0.00143653	2.6689e-07
2	0	0	0	0	0	286.7	0.282474	0.28708	-0.000933066	11	-0.00143659	2.67864e-07
2	0	0	0	0	0	286.76	0.279475	0.284104	-0.000924156	11	-0.00143664	2.62556e-07
2	0	0	0	0	0	286.82	0.276477	0.281094	-0.000934313	11	-0.0014367	2.6263e-07
2	0	0	1	0	0	286.88	0.273478	0.278107	-0.00091559	11	-0.00143675	2.54632e-07
2	0	0	1	0	0	286.94	0.27048	0.275094	-0.000920761	11	-0.00143681	2.53296e-07
2	0	0	1	0	0	287	0.267481	0.272098	-0.000915775	11	-0.00143686	2.49181e-07
2	0	0	1	0	0	287.06	0.264482	0.269094	-0.000919859	11	-0.00143692	2.47529e-07
2	0	0	1	0	0	287.12	0.261484	0.266103	-0.000898829	11	-0.00143697	2.39181e-07
2	0	0	1	0	0	287.18	0.258485	0.263121	-0.000897662	11	-0.00143703	2.36193e-07
2	0	0	1	0	0	287.24	0.255487	0.260143	-0.000913495	11	-0.00143708	2.37639e-07
2	0	0	0	0	0	287.299	0.252488	0.257117	-0.00090713	11	-0.00143714	2.33238e-07
2	0	0	0	0	0	287.359	0.24949	0.254092	-0.000890369	11	-0.00143719	2.26235e-07
2	0	0	0	0	0	287.419	0.246491	0.25106	-0.000882228	11	-0.00143724	2.21492e-07
2	0	0	0	0	0	287.479	0.243492	0.248113	-0.000897556	11	-0.0014373	2.22696e-07
2	0	0	0	0	0	287.539	0.240494	0.245134	-0.000904239	11	-0.00143735	2.2166e-07
2	0	0	0	0	0	287.599	0.237495	0.242117	-0.000874749	11	-0.00143741	2.11792e-07
2	0	0	0	0	0	287.659	0.234497	0.239088	-0.000868649	11	-0.00143746	2.07684e-07
2	0	0	1	0	0	287.719	0.231498	0.236123	-0.000907342	11	-0.00143751	2.14245e-07
2	0	0	1	0	0	287.779	0.2285	0.233097	-0.000928372	11	-0.00143757	2.16401e-07
2	0	0	1	0	0	287.839	0.225501	0.230088	-0.000927975	11	-0.00143762	2.13516e-07
2	0	0	1	0	0	287.899	0.222503	0.227087	-0.000924951	11	-0.00143768	2.10045e-07
2	0	0	1	0	0	287.959	0.219504	0.224105	-0.00091726	11	-0.00143773	2.05563e-07
2	0	0	1	0	0	288.019	0.216505	0.221136	-0.000908429	11	-0.00143779	2.00886e-07
2	0	0	1	0	0	288.079	0.213507	0.218183	-0.000907766	11	-0.00143784	1.9806e-07
2	0	0	0	0	0	288.139	0.210508	0.215199	-0.000903337	11	-0.00143789	1.94397e-07
2	0	0	0	0	0	288.199	0.20751	0.212132	-0.000931316	11	-0.00143795	1.97562e-07
2	0	0	0	0	0	288.259	0.204511	0.209131	-0.0009197	11	-0.00143801	1.92338e-07
2	0	0	0	0	0	288.319	0.201513	0.206145	-0.000924447	11	-0.00143806	1.9057e-07
2	0	0	0	0	0	288.379	0.198514	0.203165	-0.000963379	11	-0.00143812	1.95725e-07
2	0	0	0	0	0	288.439	0.195515	0.20016	-0.000976586	11	-0.00143818	1.95473e-07
2	0	0	0	0	0	288.499	0.192517	0.19715	-0.000928505	11	-0.00143823	1.83055e-07
2	0	0	1	0	0	288.559	0.189518	0.194146	-0.000949191	11	-0.00143829	1.84282e-07
2	0	0	1	0	0	288.619	0.18652	0.191155	-0.000966932	11	-0.00143835	1.84834e-07
2	0	0	1	0	0	288.679	0.183521	0.188161	-0.000963989	11	-0.0014384	1.81385e-07
2	0	0	1	0	0	288.739	0.180523	0.185162	-0.000954017	11	-0.00143846	1.76647e-07
2	0	0	1	0	0	288.799	0.177524	0.182216	-0.000948289	11	-0.00143852	1.72793e-07
2	0	0	1	0	0	288.859	0.174525	0.179228	-0.000993903	11	-0.00143858	1.78135e-07
2	0	0	1	0	0	288.919	0.171527	0.176149	-0.00102281	11	-0.00143864	1.80167e-07
2	0	0	0	0	0	288.979	0.168528	0.173152	-0.000976267	11	-0.0014387	1.69043e-07
2	0	0	0	0	0	289.039	0.16553	0.170182	-0.00099271	11	-0.00143876	1.68941e-07
2	0	0	0	0	0	289.099	0.162531	0.167198	-0.00102018	11	-0.00143882	1.70573e-07
2	0	0	0	0	0	289.159	0.159533	0.164147	-0.0010222	11	-0.00143888	1.67791e-07
2	0	0	0	0	0	289.219	0.156534	0.161173	-0.00099682	11	-0.00143894	1.60661e-07
2	0	0	0	0	0	289.279	0.153536	0.158213	-0.00104718	11	-0.001439	1.65678e-07
2	0	0	0	0	0	289.339	0.150537	0.155184	-0.00107609	11	-0.00143906	1.66991e-07
2	0	0	1	0	0	289.398	0.147538	0.15211	-0.00104281	11	-0.00143913	1.58622e-07
2	0	0	1	0	0	289.458	0.14454	0.149168	-0.00102387	11	-0.00143919	1.52728e-07
2	0	0	1	0	0	289.518	0.141541	0.146176	-0.00104442	11	-0.00143925	1.5267e-07
2	0	0	1	0	0	289.578	0.138543	0.14319	-0.00105885	11	-0.00143931	1.51617e-07
2	0	0	1	0	0	289.638	0.135544	0.140197	-0.00108495	11	-0.00143938	1.52106e-07
2	0	0	1	0	0	289.698	0.132546	0.137216	-0.00109876	11	-0.00143944	1.50768e-07
2	0	0	1	0	0	289.758	0.129547	0.134213	-0.001088	11	-0.00143951	1.46023e-07
2	0	0	0	0	0	289.818	0.126548	0.131201	-0.00109325	11	-0.00143958	1.43435e-07
2	0	0	0	0	0	289.878	0.12355	0.128159	-0.00108696	11	-0.00143964	1.39304e-07
2	0	0	0	0	0	289.938	0.120551	0.1252	-0.00112266	11	-0.00143971	1.40557e-07
2	0	0	0	0	0	289.998	0.117553	0.122212	-0.00115098	11	-0.00143978	1.40664e-07
2	0	0	0	0	0	290.058	0.114554	0.119229	-0.00110274	11	-0.00143984	1.31478e-07
2	0	0	0	0	0	290.118	0.111556	0.116195	-0.00111128	11	-0.00143991	1.29125e-07
2	0	0	0	0	0	290.178	0.108557	0.113209	-0.00115663	11	-0.00143998	1.3094e-07
2	0	0	1	0	0	290.238	0.105558	0.110208	-0.00117779	11	-0.00144005	1.29803e-07
2	0	0	1	0	0	290.298	0.10256	0.107205	-0.00116931	11	-0.00144012	1.25356e-07
2	0	0	1	0	0	290.358	0.0995613	0.1042	-0.00116851	11	-0.00144019	1.21759e-07
2	0	0	1	0	0	290.418	0.0965628	0.101229	-0.00117986	11	-0.00144026	1.19437e-07
2	0	0	1	0	0	290.478	0.0935642	0.0982651	-0.00117575	11	-0.00144033	1.15535e-07
2	0	0	1	0	0	290.538	0.0905656	0.095227	-0.00117198	11	-0.0014404	1.11605e-07
2	0	0	1	0	0	290.598	0.0875671	0.0922154	-0.0012084	11	-0.00144047	1.11433e-07
2	0	0	0	0	0	290.658	0.0845685	0.0892606	-0.00122693	11	-0.00144054	1.09517e-07
2	0	0	0	0	0	290.718	0.0815699	0.0862236	-0.00122784	11	-0.00144062	1.05868e-07
2	0	0	0	0	0	290.778	0.0785714	0.0832311	-0.00120222	11	-0.00144069	1.00062e-07
2	0	0	0	0	0	290.838	0.0755728	0.0802588	-0.00122919	11	-0.00144076	9.86532e-08
2	0	0	0	0	0	290.898	0.0725743	0.077284	-0.00126396	11	-0.00144084	9.76836e-08
2	0	0	0	0	0	290.958	0.0695757	0.0742625	-0.00127995	11	-0.00144091	9.50521e-08
2	0	0	0	0	0	291.018	0.0665816	0.071279	-0.00126319	11	-0.00144099	9.00387e-08
2	0	0	1	0	0	291.078	0.0635786	0.068267	-0.00130262	11	-0.00144107	8.89261e-08
2	0	0	1	0	0	291.138	0.06058	0.0652826	-0.00128814	11	-0.00144114	8.40933e-08
2	0	0	1	0	0	291.198	0.0575814	0.0622872	-0.00130058	11	-0.00144122	8.10095e-08
2	0	0	1	0	0	291.258	0.0545829	0.059278	-0.00130851	11	-0.0014413	7.75658e-08
2	0	0	1	0	0	291.318	0.0515843	0.0562859	-0.0013419	11	-0.00144138	7.553e-08
2	0	0	1	0	0	291.378	0.0485857	0.0532852	-0.00135537	11	-0.00144146	7.22212e-08
2	0	0	1	0	0	291.437	0.0455917	0.0502516	-0.00134629	11	-0.00144154	6.76532e-08
2	0	0	0	0	0	291.497	0.0425886	0.047235	-0.00133994	11	-0.00144162	6.32918e-08
2	0	0	0	0	0	291.557	0.03959	0.0442501	-0.00136052	11	-0.0014417	6.0203e-08
2	0	0	0	0	0	291.617	0.0365915	0.0412418	-0.00135972	11	-0.00144178	5.60773e-08
2	0	0	0	0	0	291.677	0.0335929	0.0382812	-0.00137879	11	-0.00144187	5.27816e-08
2	0	0	0	0	0	291.737	0.0305943	0.0352596	-0.00139976	11	-0.00144195	4.93552e-08
2	0	0	0	0	0	291.797	0.0275958	0.0322738	-0.00140634	11	-0.00144203	4.5388e-08
2	0	0	0	0	0	291.857	0.0246006	0.0292755	-0.00141276	11	-0.00144212	4.13592e-08
2	0	0	1	0	0	291.917	0.0215987	0.0263061	-0.00143626	11	-0.00144221	3.77823e-08
2	0	0	1	0	0	291.977	0.0186001	0.023316	-0.00146402	11	-0.00144229	3.41351e-08
2	0	0	1	0	0	292.037	0.0156015	0.0202889	-0.00147147	11	-0.00144238	2.98546e-08
2	0	0	1	0	0	292.097	0.012603	0.0172827	-0.00146243	11	-0.00144247	2.52747e-08
2	0	0	1	0	0	292.157	0.00960439	0.0143475	-0.00147264	11	-0.00144256	2.11288e-08
2	0	0	1	0	0	292.217	0.00660583	0.0112931	-0.00150736	11	-0.00144265	1.70228e-08
2	0	0	1	0	0	292.277	0.00360951	0.00825465	-0.00152026	11	-0.00144274	1.25492e-08
2	0	0	0	0	0	292.337	0.000608695	0.00526897	-0.00148434	11	-0.00144283	7.82093e-09
2	0	0	0	0	0	292.397	-0.00238987	0.00229902	-0.00149906	11	-0.00144292	3.44636e-09
2	0	0	0	0	0	292.457	-0.00538844	-0.000651408	-0.00155981	11	-0.00144301	1.01607e-09
2	0	0	0	0	0	292.517	-0.008387	-0.00369542	-0.00157297	11	-0.0014431	5.81278e-09
2	0	0	0	0	0	292.577	-0.0113856	-0.00671567	-0.0015705	11	-0.0014432	1.0547e-08
2	0	0	0	0	0	292.637	-0.0143841	-0.00971512	-0.00158594	11	-0.00144329	1.54076e-08
2	0	0	0	0	0	292.697	-0.0173816	-0.0126711	-0.0016051	11	-0.00144339	2.03384e-08
2	0	0	1	0	0	292.757	-0.0203813	-0.0156663	-0.00166409	11	-0.00144348	2.60701e-08
2	0	0	1	0	0	292.817	-0.0233798	-0.0186623	-0.00166051	11	-0.00144358	3.0989e-08
2	0	0	1	0	0	292.877	-0.0263784	-0.0217046	-0.00167597	11	-0.00144368	3.63764e-08
2	0	0	1	0	0	292.937	-0.029377	-0.024727	-0.00170623	11	-0.00144379	4.219e-08
2	0	0	1	0	0	292.997	-0.0323755	-0.0276796	-0.00172747	11	-0.00144389	4.78157e-08
2	0	0	1	0	0	293.057	-0.0353741	-0.0306495	-0.00173943	11	-0.00144399	5.33128e-08
2	0	0	1	0	0	293.117	-0.0383727	-0.0336394	-0.00176702	11	-0.0014441	5.94414e-08
2	0	0	0	0	0	293.177	-0.0413712	-0.0366461	-0.00179072	11	-0.0014442	6.5623e-08
2	0	0	0	0	0	293.237	-0.0443698	-0.0396545	-0.00181581	11	-0.00144431	7.2005e-08
2	0	0	0	0	0	293.297	-0.0473684	-0.0427004	-0.00182098	11	-0.00144442	7.77566e-08
2	0	0	0	0	0	293.357	-0.0503669	-0.0456879	-0.00187898	11	-0.00144453	8.58468e-08
2	0	0	0	0	0	293.417	-0.0533655	-0.0487114	-0.00190998	11	-0.00144465	9.30379e-08
2	0	0	0	0	0	293.477	-0.0563641	-0.051648	-0.00195064	11	-0.00144476	1.00747e-07
2	0	0	0	0	0	293.536	-0.0593626	-0.054626	-0.00199298	11	-0.00144488	1.08868e-07
2	0	0	1	0	0	293.596	-0.0623612	-0.0576357	-0.00207276	11	-0.001445	1.19465e-07
2	0	0	1	0	0	293.656	-0.0653598	-0.060651	-0.00209586	11	-0.00144513	1.27116e-07
2	0	0	1	0	0	293.716	-0.0683583	-0.063646	-0.00208446	11	-0.00144525	1.32667e-07
2	0	0	1	0	0	293.776	-0.0713569	-0.0666765	-0.00216654	11	-0.00144538	1.44457e-07
2	0	0	1	0	0	293.836	-0.0743555	-0.0696509	-0.00225811	11	-0.00144551	1.57279e-07
2	0	0	1	0	0	293.896	-0.077354	-0.0726431	-0.00228943	11	-0.00144565	1.66311e-07
2	0	0	1	0	0	293.956	-0.0803537	-0.0756355	-0.00234129	11	-0.00144579	1.77085e-07
2	0	0	0	0	0	294.016	-0.0833512	-0.0785964	-0.00244744	11	-0.00144593	1.9236e-07
2	0	0	0	0	0	294.076	-0.0863497	-0.0816185	-0.00254169	11	-0.00144608	2.07449e-07
2	0	0	0	0	0	294.136	-0.0893483	-0.0846725	-0.00262912	11	-0.00144624	2.22615e-07
2	0	0	0	0	0	294.196	-0.0923469	-0.0876595	-0.00273345	11	-0.0014464	2.39613e-07
2	0	0	0	0	0	294.256	-0.0953454	-0.0906222	-0.00286786	11	-0.00144656	2.59892e-07
2	0	0	0	0	0	294.316	-0.098344	-0.0936346	-0.00293588	11	-0.00144674	2.749e-07
2	0	0	0	0	0	294.376	-0.101345	-0.0966306	-0.00304808	11	-0.00144692	2.94538e-07
2	0	0	1	0	0	294.436	-0.104341	-0.099611	-0.00324587	11	-0.00144711	3.23325e-07
2	0	0	1	0	0	294.496	-0.10734	-0.102616	-0.00343987	11	-0.00144731	3.52985e-07
2	0	0	1	0	0	294.556	-0.110338	-0.10562	-0.00355555	11	-0.00144752	3.75536e-07
2	0	0	1	0	0	294.616	-0.113337	-0.108603	-0.00370342	11	-0.00144773	4.02202e-07
2	0	0	1	0	0	294.676	-0.116335	-0.111585	-0.00399321	11	-0.00144797	4.45583e-07
2	0	0	1	0	0	294.736	-0.119334	-0.114556	-0.00417025	11	-0.00144821	4.7773e-07
2	0	0	1	0	0	294.796	-0.122336	-0.117531	-0.00430049	11	-0.00144846	5.05443e-07
2	0	0	0	0	0	294.856	-0.125331	-0.120545	-0.00448308	11	-0.00144873	5.40415e-07
2	0	0	0	0	0	294.916	-0.12833	-0.123564	-0.00485105	11	-0.00144901	5.99415e-07
2	0	0	0	0	0	294.976	-0.131328	-0.126581	-0.00497471	11	-0.0014493	6.29706e-07
2	0	0	0	0	0	295.036	-0.134327	-0.129557	-0.0051521	11	-0.00144961	6.67493e-07
2	0	0	0	0	0	295.096	-0.137325	-0.132579	-0.00540712	11	-0.00144992	7.16869e-07
2	0	0	0	0	0	295.156	-0.140324	-0.135556	-0.00571499	11	-0.00145026	7.74702e-07
2	0	0	0	0	0	295.216	-0.143327	-0.138584	-0.00576881	11	-0.0014506	7.99463e-07
2	0	0	1	0	0	295.276	-0.146321	-0.141535	-0.00590172	11	-0.00145095	8.35301e-07
2	0	0	1	0	0	295.336	-0.14932	-0.144533	-0.00624085	11	-0.00145132	9.0201e-07
2	0	0	1	0	0	295.396	-0.152318	-0.147535	-0.00634489	11	-0.0014517	9.36092e-07
2	0	0	1	0	0	295.456	-0.155317	-0.150564	-0.00632519	11	-0.00145208	9.52345e-07
2	0	0	1	0	0	295.516	-0.158315	-0.153543	-0.00639594	11	-0.00145246	9.82055e-07
2	0	0	1	0	0	295.576	-0.161314	-0.156546	-0.00655652	11	-0.00145285	1.0264e-06
2	0	0	1	0	0	295.635	-0.164317	-0.159583	-0.00638204	11	-0.00145323	1.01846e-06
2	0	0	0	0	0	295.695	-0.167311	-0.162618	-0.00604243	11	-0.00145361	9.8261e-07
2	0	0	0	0	0	295.755	-0.17031	-0.165591	-0.00591503	11	-0.00145396	9.79479e-07
2	0	0	0	0	0	295.815	-0.173308	-0.168609	-0.00564068	11	-0.00145431	9.51067e-07
2	0	0	0	0	0	295.875	-0.176307	-0.171625	-0.00517364	11	-0.00145464	8.87928e-07
2	0	0	0	0	0	295.935	-0.179305	-0.1746	-0.00477735	11	-0.00145493	8.34124e-07
2	0	0	0	0	0	295.995	-0.182304	-0.177607	-0.00448791	11	-0.00145521	7.97084e-07
2	0	0	1	0	0	296.055	-0.185302	-0.180656	-0.00419212	11	-0.00145547	7.57332e-07
2	0	0	1	0	0	296.115	-0.188301	-0.18359	-0.00382685	11	-0.00145571	7.0257e-07
2	0	0	1	0	0	296.175	-0.1913	-0.18662	-0.00360424	11	-0.00145593	6.72624e-07
2	0	0	1	0	0	296.235	-0.194298	-0.189593	-0.00344888	11	-0.00145614	6.53884e-07
2	0	0	1	0	0	296.295	-0.197297	-0.192579	-0.00322376	11	-0.00145634	6.20827e-07
2	0	0	1	0	0	296.346	-0.199845	-0.195165	-0.00307283	11	-0.00145651	5.99709e-07
2	0	0	0	0	0	296.348	-0.200045	-0.19526	-0.00307569	11	-0.00145651	6.00561e-07