File: literature/rawdata/engstfeld_2018_polycrystalline_17743/engstfeld_2018_polycrystalline_17743_f4b_4.csv
E,<I>,I (raw),j,j
V vs. RHE,mA,\g(m)A,\g(m)A/cm\+(-2),mA/cm\+(-2)
-0.195302,-0.0042395,-4.2395,-27.8817,-0.0278817
-0.196835,-0.00422947,-4.22947,-27.8158,-0.0278158
-0.198446,-0.00329711,-3.29711,-21.6839,-0.0216839
-0.198182,-0.00211013,-2.11013,-13.8776,-0.0138776
-0.196541,-0.00133959,-1.33959,-8.81002,-0.00881002
-0.1942779,-0.00114963,-1.14963,-7.5607,-0.0075607
-0.192183,-0.00107853,-1.07853,-7.09311,-0.00709311
-0.190108,-0.000879204,-0.879204,-5.78222,-0.00578222
-0.188178,-0.000810241,-0.810241,-5.32867,-0.00532867
-0.18622,-0.000458942,-0.458942,-3.0183,-0.0030183
-0.184152,-0.000419852,-0.419852,-2.76122,-0.00276122
-0.182201,-0.000191568,-0.191568,-1.25988,-0.00125988
-0.180188,0.000104103,0.104103,0.684651,0.000684651
-0.178189,0.000148206,0.148206,0.974699,0.000974699
-0.176226,0.000506066,0.506066,3.32822,0.00332822
-0.174194,0.000778241,0.778241,5.11822,0.00511822
-0.172223,0.00080073,0.80073,5.26612,0.00526612
-0.1702912,0.00112457,1.12457,7.39587,0.00739587
-0.168251,0.00141091,1.41091,9.27904,0.00927904
-0.166253,0.0014227,1.4227,9.35662,0.00935662
-0.164254,0.00165695,1.65695,10.8972,0.0108972
-0.162251,0.00198684,1.98684,13.0667,0.0130667
-0.160207,0.00202829,2.02829,13.3393,0.0133393
-0.158248,0.0020638,2.0638,13.5729,0.0135729
-0.156298,0.00237697,2.37697,15.6325,0.0156325
-0.15424,0.00255338,2.55338,16.7927,0.0167927
-0.152242,0.00249864,2.49864,16.4327,0.0164327
-0.15025,0.00261104,2.61104,17.1719,0.0171719
-0.148242,0.00279699,2.79699,18.3949,0.0183949
-0.146256,0.0027675,2.7675,18.2009,0.0182009
-0.1442942,0.00270028,2.70028,17.7588,0.0177588
-0.142341,0.00284324,2.84324,18.699,0.018699
-0.140292,0.00289353,2.89353,19.0297,0.0190297
-0.1382501,0.00277469,2.77469,18.2482,0.0182482
-0.136293,0.00282842,2.82842,18.6015,0.0186015
-0.1342214,0.00292957,2.92957,19.2667,0.0192667
-0.132186,0.00277618,2.77618,18.2579,0.0182579
-0.13024,0.0026855,2.6855,17.6616,0.0176616
-0.128269,0.00279967,2.79967,18.4125,0.0184125
-0.126245,0.00269802,2.69802,17.744,0.017744
-0.124286,0.00255187,2.55187,16.7828,0.0167828
-0.122314,0.00262477,2.62477,17.2622,0.0172622
-0.120257,0.00256699,2.56699,16.8822,0.0168822
-0.118243,0.00236127,2.36127,15.5293,0.0155293
-0.116285,0.00239601,2.39601,15.7577,0.0157577
-0.114245,0.00238119,2.38119,15.6602,0.0156602
-0.112234,0.00215699,2.15699,14.1858,0.0141858
-0.110275,0.00216229,2.16229,14.2206,0.0142206
-0.108233,0.00213553,2.13553,14.0447,0.0140447
-0.106276,0.00193966,1.93966,12.7564,0.0127564
-0.104285,0.00200826,2.00826,13.2076,0.0132076
-0.102238,0.00190725,1.90725,12.5433,0.0125433
-0.100277,0.00170013,1.70013,11.1811,0.0111811
-0.098266,0.00175014,1.75014,11.5101,0.0115101
-0.0962066,0.00157912,1.57912,10.3853,0.0103853
-0.0942696,0.0015165,1.5165,9.97352,0.00997352
-0.0922531,0.0015152,1.5152,9.96497,0.00996497
-0.09026929,0.00131188,1.31188,8.62775,0.00862775
-0.088298,0.00135014,1.35014,8.87943,0.00887943
-0.0862648,0.00118816,1.18816,7.81411,0.00781411
-0.08433,0.00115863,1.15863,7.61988,0.00761988
-0.0823055,0.00113968,1.13968,7.49529,0.00749529
-0.0803111,0.00100814,1.00814,6.6302,0.0066302
-0.0783084,0.00101559,1.01559,6.67921,0.00667921
-0.0763013,0.00084226,0.84226,5.53925,0.00553925
-0.0743192,0.000901718,0.901718,5.93028,0.00593028
-0.0722785,0.000763575,0.763575,5.02177,0.00502177
-0.0703024,0.00079227,0.79227,5.21048,0.00521048
-0.0682865,0.000675184,0.675184,4.44045,0.00444045
-0.0663081,0.000687887,0.687887,4.52399,0.00452399
-0.0643109,0.000599894,0.599894,3.94529,0.00394529
-0.0623702,0.000616681,0.616681,4.0557,0.0040557
-0.0603482,0.000543221,0.543221,3.57257,0.00357257
-0.0583279,0.000525055,0.525055,3.4531,0.0034531
-0.0563061,0.00042945,0.42945,2.82434,0.00282434
-0.0543255,0.000423589,0.423589,2.7858,0.0027858
-0.0523097,0.000337134,0.337134,2.21721,0.00221721
-0.0503308,0.000383995,0.383995,2.5254,0.0025254
-0.0483417,0.000329099,0.329099,2.16437,0.00216437
-0.0463142,0.00033907,0.33907,2.22995,0.00222995
-0.0443571,0.00028672,0.28672,1.88566,0.00188566
-0.0423384,0.000252423,0.252423,1.6601,0.0016601
-0.0403537,0.000229357,0.229357,1.5084,0.0015084
-0.0383419,0.000191884,0.191884,1.26196,0.00126196
-0.0363568,0.000187906,0.187906,1.23579,0.00123579
-0.034359,0.000157594,0.157594,1.03644,0.00103644
-0.0323222,0.000137306,0.137306,0.903015,0.000903015
-0.03034924,0.000100152,0.100152,0.658663,0.000658663
-0.0283553,8.69978e-05,0.0869978,0.572154,0.000572154
-0.0263452,9.08432e-05,0.0908432,0.597444,0.000597444
-0.024372,9.54842e-05,0.0954842,0.627966,0.000627966
-0.0223973,9.96479e-05,0.0996479,0.655349,0.000655349
-0.0203446,8.4558e-05,0.084558,0.556108,0.000556108
-0.0183495,6.13e-05,0.0613,0.403148,0.000403148
-0.0163367,4.32399e-05,0.0432399,0.284374,0.000284374
-0.0143518,1.3564e-05,0.013564,0.089206,8.9206e-05
-0.0123443,7.38488e-06,0.00738488,0.0485678,4.85678e-05
-0.0103791,1.97481e-06,0.00197481,0.0129876,1.29876e-05
-0.00839111,3.72514e-06,0.00372514,0.0244989,2.44989e-05
-0.00640308,1.84172e-05,0.0184172,0.121123,0.000121123
-0.0043864,1.44392e-05,0.0144392,0.0949615,9.49615e-05
-0.00238648,-8.9249e-06,-0.0089249,-0.058696,-5.8696e-05
-0.0004052,-5.1795e-06,-0.0051795,-0.0340638,-3.40638e-05
0.00160168,-1.11261e-05,-0.0111261,-0.0731722,-7.31722e-05
0.00362261,-1.61383e-05,-0.0161383,-0.106136,-0.000106136
0.00562953,-4.32417e-05,-0.0432417,-0.284386,-0.000284386
0.00761013,-5.59713e-05,-0.0559713,-0.368104,-0.000368104
0.00963403,-5.60774e-05,-0.0560774,-0.368802,-0.000368802
0.0116422,-3.25277e-05,-0.0325277,-0.213923,-0.000213923
0.01363492,-3.41454e-05,-0.0341454,-0.224562,-0.000224562
0.01560852,-5.45393e-05,-0.0545393,-0.358686,-0.000358686
0.0176099,-5.97637e-05,-0.0597637,-0.393045,-0.000393045
0.0196016,-5.54675e-05,-0.0554675,-0.36479,-0.00036479
0.0215892,-6.29991e-05,-0.0629991,-0.414323,-0.000414323
0.0235882,-6.26544e-05,-0.0626544,-0.412056,-0.000412056
0.0255941,-3.90781e-05,-0.0390781,-0.257003,-0.000257003
0.0276059,-3.88394e-05,-0.0388394,-0.255433,-0.000255433
0.0295738,-5.59978e-05,-0.0559978,-0.368278,-0.000368278
0.0315796,-6.51207e-05,-0.0651207,-0.428276,-0.000428276
0.0336137,-6.51207e-05,-0.0651207,-0.428276,-0.000428276
0.0356164,-7.26789e-05,-0.0726789,-0.477984,-0.000477984
0.037618,-4.8864e-05,-0.048864,-0.321361,-0.000321361
0.0396105,-2.07528e-05,-0.0207528,-0.136484,-0.000136484
0.0415828,-2.58354e-05,-0.0258354,-0.169911,-0.000169911
0.0435411,-1.81804e-05,-0.0181804,-0.119566,-0.000119566
0.0455495,-1.52632e-05,-0.0152632,-0.100381,-0.000100381
0.0475934,-2.26622e-05,-0.0226622,-0.149042,-0.000149042
0.0495946,-2.05937e-05,-0.0205937,-0.135438,-0.000135438
0.0516163,-1.91616e-05,-0.0191616,-0.126019,-0.000126019
0.0535734,-1.5661e-05,-0.015661,-0.102997,-0.000102997
0.0555563,-1.49449e-05,-0.0149449,-0.0982877,-9.82877e-05
0.0575864,-2.21319e-05,-0.0221319,-0.145553,-0.000145553
0.0596024,-7.81105e-06,-0.00781105,-0.0513706,-5.13706e-05
0.06160171,-1.83925e-05,-0.0183925,-0.120961,-0.000120961
0.0635343,-3.7593e-05,-0.037593,-0.247236,-0.000247236
0.0655659,-3.90251e-05,-0.0390251,-0.256654,-0.000256654
0.0675554,-3.74869e-05,-0.0374869,-0.246538,-0.000246538
0.0695874,-3.14354e-06,-0.00314354,-0.020674,-2.0674e-05
0.0715858,-1.34333e-05,-0.0134333,-0.0883461,-8.83461e-05
0.0735857,-2.64016e-05,-0.0264016,-0.173634,-0.000173634
0.0755816,-3.01409e-05,-0.0301409,-0.198226,-0.000198226
0.0775306,-3.15464e-05,-0.0315464,-0.20747,-0.00020747
0.0795305,-3.45432e-05,-0.0345432,-0.227179,-0.000227179
0.0815389,-3.00613e-05,-0.0300613,-0.197703,-0.000197703
0.0835624,-2.67691e-05,-0.0267691,-0.176051,-0.000176051
0.0855419,-3.07243e-05,-0.0307243,-0.202063,-0.000202063
0.0875404,-3.99002e-05,-0.0399002,-0.26241,-0.00026241
0.0895515,-1.60588e-05,-0.0160588,-0.105613,-0.000105613
0.09152469,-4.62866e-06,-0.00462866,-0.0304411,-3.04411e-05
0.09355475,3.20484e-05,0.0320484,0.210771,0.000210771
0.0955859,2.9423e-05,0.029423,0.193505,0.000193505
0.0975645,1.66669e-05,0.0166669,0.109612,0.000109612
0.0995441,1.44441e-06,0.00144441,0.00949938,9.49938e-06
0.101536,-4.99993e-06,-0.00499993,-0.0328828,-3.28828e-05
0.103527,2.10005e-06,0.00210005,0.0138113,1.38113e-05
0.105532,-5.02647e-06,-0.00502647,-0.0330573,-3.30573e-05
0.107527,1.43596e-05,0.0143596,0.0944383,9.44383e-05
0.109543,3.55756e-05,0.0355756,0.233968,0.000233968
0.111525,5.47496e-05,0.0547496,0.360069,0.000360069
0.113507,5.99209e-05,0.0599209,0.394079,0.000394079
0.115492,4.80135e-05,0.0480135,0.315768,0.000315768
0.117505,2.5498e-05,0.025498,0.167692,0.000167692
0.119525,3.49126e-05,0.0349126,0.229608,0.000229608
0.121537,4.48311e-05,0.0448311,0.294838,0.000294838
0.123535,4.24178e-05,0.0424178,0.278967,0.000278967
0.125513,4.44068e-05,0.0444068,0.292048,0.000292048
0.127506,4.3399e-05,0.043399,0.28542,0.00028542
0.129493,3.56552e-05,0.0356552,0.234492,0.000234492
0.13147,2.93169e-05,0.0293169,0.192807,0.000192807
0.13347,4.59449e-05,0.0459449,0.302164,0.000302164
0.135481,4.70322e-05,0.0470322,0.309315,0.000309315
0.137493,4.50698e-05,0.0450698,0.296408,0.000296408
0.1395267,3.35601e-05,0.0335601,0.220713,0.000220713
0.141526,2.47289e-05,0.0247289,0.162634,0.000162634
0.143499,3.28706e-05,0.0328706,0.216178,0.000216178
0.145488,4.03597e-05,0.0403597,0.265432,0.000265432
0.147474,4.72709e-05,0.0472709,0.310884,0.000310884
0.14948,6.90703e-05,0.0690703,0.454251,0.000454251
0.151455,6.75057e-05,0.0675057,0.443961,0.000443961
0.153476,5.23628e-05,0.0523628,0.344372,0.000344372
0.155499,6.01066e-05,0.0601066,0.3953,0.0003953
0.1575041,4.91804e-05,0.0491804,0.323442,0.000323442
0.159481,6.09287e-05,0.0609287,0.400707,0.000400707
0.16149,6.8646e-05,0.068646,0.451461,0.000451461
0.163471,5.7932e-05,0.057932,0.380998,0.000380998
0.165468,5.37683e-05,0.0537683,0.353615,0.000353615
0.167492,3.58143e-05,0.0358143,0.235538,0.000235538
0.169519,3.55226e-05,0.0355226,0.23362,0.00023362
0.171519,4.4672e-05,0.044672,0.293792,0.000293792
0.173493,1.81255e-05,0.0181255,0.119205,0.000119205
0.175479,3.56552e-05,0.0356552,0.234492,0.000234492
0.177463,4.92864e-05,0.0492864,0.32414,0.00032414
0.179468,4.4778e-05,0.044778,0.29449,0.00029449
0.181479,4.15956e-05,0.0415956,0.27356,0.00027356
0.183473,5.90458e-05,0.0590458,0.388324,0.000388324
0.185481,6.50923e-05,0.0650923,0.42809,0.00042809
0.187481,4.69638e-05,0.0469638,0.308864,0.000308864
0.189484,4.24708e-05,0.0424708,0.279316,0.000279316
0.191473,4.3346e-05,0.043346,0.285071,0.000285071
0.193455,3.478e-05,0.03478,0.228736,0.000228736
0.195449,4.64488e-05,0.0464488,0.305478,0.000305478
0.197452,7.5223e-05,0.075223,0.494715,0.000494715
0.199458,4.92599e-05,0.0492599,0.323965,0.000323965
0.201449,3.02716e-05,0.0302716,0.199086,0.000199086
0.203427,4.31603e-05,0.0431603,0.28385,0.00028385
0.2054297,4.6714e-05,0.046714,0.307222,0.000307222
0.207444,5.04798e-05,0.0504798,0.331988,0.000331988
0.20943,3.76176e-05,0.0376176,0.247398,0.000247398
0.211441,5.76402e-05,0.0576402,0.37908,0.00037908
0.213457,7.28892e-05,0.0728892,0.479367,0.000479367
0.215479,6.46415e-05,0.0646415,0.425125,0.000425125
0.217472,5.95232e-05,0.0595232,0.391463,0.000391463
0.219503,4.32664e-05,0.0432664,0.284548,0.000284548
0.221489,2.32703e-05,0.0232703,0.153041,0.000153041
0.223449,2.65323e-05,0.0265323,0.174494,0.000174494
0.2254204,6.72935e-05,0.0672935,0.442566,0.000442566
0.2274203,0.000112324,0.112324,0.738718,0.000738718
0.229409,0.00012158,0.12158,0.79959,0.00079959
0.231413,9.81893e-05,0.0981893,0.645756,0.000645756
0.233458,8.80586e-05,0.0880586,0.579131,0.000579131
0.235479,6.71079e-05,0.0671079,0.441345,0.000441345
0.237474,4.81726e-05,0.0481726,0.316814,0.000316814
0.239433,6.39255e-05,0.0639255,0.420415,0.000420415
0.2414,7.28627e-05,0.0728627,0.479193,0.000479193
0.243387,8.45845e-05,0.0845845,0.556283,0.000556283
0.245403,9.02598e-05,0.0902598,0.593607,0.000593607
0.247425,9.88258e-05,0.0988258,0.649942,0.000649942
0.24942,0.000102592,0.102592,0.674709,0.000674709
0.251401,9.97274e-05,0.0997274,0.655872,0.000655872
0.253392,0.000101531,0.101531,0.667733,0.000667733
0.255436,8.88277e-05,0.0888277,0.584189,0.000584189
0.257457,0.000103361,0.103361,0.679767,0.000679767
0.259412,0.000132692,0.132692,0.872667,0.000872667
0.2613866,0.000161492,0.161492,1.06208,0.00106208
0.263403,0.000147941,0.147941,0.972954,0.000972954
0.265428,0.000148153,0.148153,0.97435,0.00097435
0.2673904,0.000146164,0.146164,0.961269,0.000961269
0.269349,0.000137651,0.137651,0.905282,0.000905282
0.271356,0.00013688,0.13688,0.900213,0.000900213
0.273369,0.000131711,0.131711,0.866214,0.000866214
0.275398,0.000133487,0.133487,0.877899,0.000877899
0.277405,0.000133965,0.133965,0.881039,0.000881039
0.27937,0.000138659,0.138659,0.91191,0.00091191
0.281388,0.000132665,0.132665,0.872493,0.000872493
0.283371,0.000154067,0.154067,1.01324,0.00101324
0.285371,0.000183557,0.183557,1.20719,0.00120719
0.287369,0.000201538,0.201538,1.32544,0.00132544
0.289375,0.000195093,0.195093,1.28306,0.00128306
0.2914038,0.00016791,0.16791,1.10429,0.00110429
0.2934131,0.000143273,0.143273,0.942258,0.000942258
0.295395,0.000173453,0.173453,1.14074,0.00114074
0.297378,0.000188596,0.188596,1.24033,0.00124033
0.2993778,0.000202917,0.202917,1.33451,0.00133451
0.301367,0.000209865,0.209865,1.38021,0.00138021
0.303367,0.00021554,0.21554,1.41753,0.00141753
0.305381,0.00021379,0.21379,1.40602,0.00140602
0.307346,0.000206948,0.206948,1.36102,0.00136102
0.30935,0.000192574,0.192574,1.26649,0.00126649
0.311341,0.000204826,0.204826,1.34707,0.00134707
0.313337,0.000211157,0.211157,1.38871,0.00138871
0.315355,0.000230763,0.230763,1.51764,0.00151764
0.317332,0.000247285,0.247285,1.6263,0.0016263
0.319339,0.000253225,0.253225,1.66537,0.00166537
0.321338,0.000259272,0.259272,1.70514,0.00170514
0.323356,0.000272054,0.272054,1.78921,0.00178921
0.325334,0.000292528,0.292528,1.92385,0.00192385
0.327309,0.000320984,0.320984,2.111,0.002111
0.329327,0.000320559,0.320559,2.10821,0.00210821
0.331345,0.000335967,0.335967,2.20954,0.00220954
0.333362,0.000340476,0.340476,2.23919,0.00223919
0.335343,0.000324166,0.324166,2.13193,0.00213193
0.337327,0.000347954,0.347954,2.28837,0.00228837
0.339314,0.000399987,0.399987,2.63057,0.00263057
0.341305,0.000424571,0.424571,2.79225,0.00279225
0.343323,0.000410462,0.410462,2.69946,0.00269946
0.3453086,0.000415448,0.415448,2.73225,0.00273225
0.347333,0.000407359,0.407359,2.67906,0.00267906
0.349296,0.000413247,0.413247,2.71778,0.00271778
0.351291,0.000462759,0.462759,3.04341,0.00304341
0.353282,0.000531897,0.531897,3.4981,0.0034981
0.355263,0.000559239,0.559239,3.67792,0.00367792
0.357267,0.000538341,0.538341,3.54048,0.00354048
0.359294,0.000543831,0.543831,3.57659,0.00357659
0.3613103,0.00058202,0.58202,3.82774,0.00382774
0.363328,0.000610529,0.610529,4.01523,0.00401523
0.365323,0.000630551,0.630551,4.14691,0.00414691
0.367321,0.000652748,0.652748,4.2929,0.0042929
0.369298,0.000667175,0.667175,4.38778,0.00438778
0.371291,0.000688975,0.688975,4.53115,0.00453115
0.373279,0.000748432,0.748432,4.92218,0.00492218
0.375283,0.000796001,0.796001,5.23502,0.00523502
0.377289,0.000840828,0.840828,5.52983,0.00552983
0.379309,0.000845549,0.845549,5.56088,0.00556088
0.381295,0.000860692,0.860692,5.66047,0.00566047
0.3832809,0.000915004,0.915004,6.01766,0.00601766
0.385296,0.000975364,0.975364,6.41463,0.00641463
0.387271,0.00103233,1.03233,6.78927,0.00678927
0.38928,0.00106863,1.06863,7.02804,0.00702804
0.391278,0.00108508,1.08508,7.13617,0.00713617
0.393266,0.00114732,1.14732,7.54552,0.00754552
0.395236,0.0012385,1.2385,8.14515,0.00814515
0.397235,0.00133818,1.33818,8.80077,0.00880077
0.399268,0.00140788,1.40788,9.25912,0.00925912
0.401281,0.0014702,1.4702,9.66899,0.00966899
0.403261,0.00148418,1.48418,9.76091,0.00976091
0.4052197,0.00156771,1.56771,10.3103,0.0103103
0.407207,0.00170238,1.70238,11.196,0.011196
0.409241,0.00181804,1.81804,11.9566,0.0119566
0.411245,0.00189346,1.89346,12.4526,0.0124526
0.413283,0.0018815,1.8815,12.374,0.012374
0.415263,0.00189317,1.89317,12.4507,0.0124507
0.417232,0.00195032,1.95032,12.8266,0.0128266
0.419225,0.00203059,2.03059,13.3545,0.0133545
0.421221,0.00211442,2.11442,13.9058,0.0139058
0.423251,0.00212116,2.12116,13.9501,0.0139501
0.42523,0.00205348,2.05348,13.505,0.013505
0.427204,0.00205271,2.05271,13.5,0.0135
0.429184,0.0021171,2.1171,13.9234,0.0139234
0.431219,0.00218131,2.18131,14.3457,0.0143457
0.433225,0.00223885,2.23885,14.7242,0.0147242
0.435231,0.00224522,2.24522,14.766,0.014766
0.437229,0.00220345,2.20345,14.4913,0.0144913
0.4391773,0.00228044,2.28044,14.9976,0.0149976
0.441159,0.00240285,2.40285,15.8027,0.0158027
0.443157,0.00248878,2.48878,16.3678,0.0163678
0.4451656,0.00259035,2.59035,17.0358,0.0170358
0.447216,0.00264989,2.64989,17.4274,0.0174274
0.449196,0.00269738,2.69738,17.7398,0.0177398
0.451182,0.00292079,2.92079,19.209,0.019209
0.45316,0.00321301,3.21301,21.1309,0.0211309
0.455147,0.00348903,3.48903,22.9461,0.0229461
0.457112,0.00377871,3.77871,24.8513,0.0248513
0.459079,0.00405087,4.05087,26.6412,0.0266412
0.461073,0.00437867,4.37867,28.797,0.028797
0.463009,0.0049916,4.9916,32.828,0.032828
0.46494,0.00581348,5.81348,38.2332,0.0382332
0.466957,0.00667713,6.67713,43.9132,0.0439132
0.468962,0.0075965,7.5965,49.9595,0.0499595
0.470906,0.00866602,8.66602,56.9934,0.0569934
0.472759,0.0101612,10.1612,66.8266,0.0668266
0.474549,0.0124589,12.4589,81.9377,0.0819377
0.476284,0.0158165,15.8165,104.019,0.104019
0.478047,0.0201882,20.1882,132.771,0.132771
0.479976,0.024972,24.972,164.232,0.164232
0.482321,0.0284414,28.4414,187.049,0.187049
0.485298,0.0276645,27.6645,181.94,0.18194
0.488542,0.0206044,20.6044,135.508,0.135508
0.490876,0.0105323,10.5323,69.2675,0.0692675
0.4919875,0.00474836,4.74836,31.2283,0.0312283
0.493234,0.00481906,4.81906,31.6933,0.0316933
0.495259,0.00567004,5.67004,37.2898,0.0372898
0.496003,0.00562371,5.62371,36.9851,0.0369851
0.496664,0.0055107,5.5107,36.242,0.036242
0.498524,0.00489608,4.89608,32.1998,0.0321998
0.49953,0.00270752,2.70752,17.8064,0.0178064
0.498518,-0.000140411,-0.140411,-0.923433,-0.000923433
0.4963716,-0.00133718,-1.33718,-8.79415,-0.00879415
0.4941,-0.00180435,-1.80435,-11.8666,-0.0118666
0.491947,-0.00221772,-2.21772,-14.5852,-0.0145852
0.489961,-0.00259239,-2.59239,-17.0493,-0.0170493
0.488056,-0.00318337,-3.18337,-20.9359,-0.0209359
0.48613,-0.00405468,-4.05468,-26.6662,-0.0266662
0.484202,-0.00516783,-5.16783,-33.987,-0.033987
0.48227,-0.00646651,-6.46651,-42.528,-0.042528
0.48036,-0.00797879,-7.97879,-52.4737,-0.0524737
0.478457,-0.00986123,-9.86123,-64.8539,-0.0648539
0.476545,-0.0121433,-12.1433,-79.8621,-0.0798621
0.474634,-0.0146661,-14.6661,-96.4541,-0.0964541
0.47258,-0.0168781,-16.8781,-111.001,-0.111001
0.470279,-0.0177622,-17.7622,-116.816,-0.116816
0.467943,-0.0167899,-16.7899,-110.421,-0.110421
0.465818,-0.014881,-14.881,-97.8668,-0.0978668
0.463974,-0.0138241,-13.8241,-90.9162,-0.0909162
0.462208,-0.0143664,-14.3664,-94.4831,-0.0944831
0.460243,-0.0154858,-15.4858,-101.845,-0.101845
0.458046,-0.015662,-15.662,-103.003,-0.103003
0.4557755,-0.0142409,-14.2409,-93.6574,-0.0936574
0.4536317,-0.0118778,-11.8778,-78.1164,-0.0781164
0.451673,-0.00968365,-9.68365,-63.686,-0.063686
0.449736,-0.00825086,-8.25086,-54.263,-0.054263
0.447765,-0.0072292,-7.2292,-47.5439,-0.0475439
0.445755,-0.00620606,-6.20606,-40.8151,-0.0408151
0.44378,-0.00528616,-5.28616,-34.7652,-0.0347652
0.441812,-0.00458945,-4.58945,-30.1832,-0.0301832
0.439853,-0.00407088,-4.07088,-26.7728,-0.0267728
0.437875,-0.00378529,-3.78529,-24.8945,-0.0248945
0.435887,-0.00357154,-3.57154,-23.4888,-0.0234888
0.433905,-0.0033702,-3.3702,-22.1646,-0.0221646
0.431945,-0.0032293,-3.2293,-21.238,-0.021238
0.429947,-0.00311484,-3.11484,-20.4852,-0.0204852
0.427949,-0.00310985,-3.10985,-20.4524,-0.0204524
0.4259311,-0.00306005,-3.06005,-20.1249,-0.0201249
0.423952,-0.00294073,-2.94073,-19.3402,-0.0193402
0.421946,-0.00289141,-2.89141,-19.0158,-0.0190158
0.419948,-0.00285515,-2.85515,-18.7774,-0.0187774
0.417992,-0.00288711,-2.88711,-18.9875,-0.0189875
0.416,-0.00295943,-2.95943,-19.4631,-0.0194631
0.413978,-0.00293564,-2.93564,-19.3067,-0.0193067
0.411963,-0.00289828,-2.89828,-19.0609,-0.0190609
0.409954,-0.00283927,-2.83927,-18.6729,-0.0186729
0.40795,-0.00283983,-2.83983,-18.6765,-0.0186765
0.405992,-0.00287613,-2.87613,-18.9153,-0.0189153
0.403992,-0.00282901,-2.82901,-18.6054,-0.0186054
0.401968,-0.00271221,-2.71221,-17.8373,-0.0178373
0.399949,-0.00255484,-2.55484,-16.8023,-0.0168023
0.397928,-0.00241248,-2.41248,-15.8661,-0.0158661
0.395927,-0.00231494,-2.31494,-15.2246,-0.0152246
0.393924,-0.00223549,-2.23549,-14.702,-0.014702
0.391918,-0.00210941,-2.10941,-13.8729,-0.0138729
0.389939,-0.00200323,-2.00323,-13.1745,-0.0131745
0.387968,-0.00191958,-1.91958,-12.6244,-0.0126244
0.385971,-0.00186058,-1.86058,-12.2364,-0.0122364
0.383977,-0.00182536,-1.82536,-12.0048,-0.0120048
0.381961,-0.00178377,-1.78377,-11.7313,-0.0117313
0.379986,-0.00172331,-1.72331,-11.3336,-0.0113336
0.377991,-0.00166141,-1.66141,-10.9265,-0.0109265
0.375986,-0.00160195,-1.60195,-10.5355,-0.0105355
0.374012,-0.0015665,-1.5665,-10.3023,-0.0103023
0.372018,-0.00153059,-1.53059,-10.0661,-0.0100661
0.37002,-0.00148895,-1.48895,-9.79231,-0.00979231
0.368002,-0.0014344,-1.4344,-9.43355,-0.00943355
0.365981,-0.00139687,-1.39687,-9.18675,-0.00918675
0.363969,-0.00135521,-1.35521,-8.91275,-0.00891275
0.362006,-0.00134789,-1.34789,-8.86461,-0.00886461
0.360004,-0.00134325,-1.34325,-8.83409,-0.00883409
0.358,-0.0013266,-1.3266,-8.72456,-0.00872456
0.356014,-0.00130342,-1.30342,-8.57212,-0.00857212
0.354015,-0.00128194,-1.28194,-8.43085,-0.00843085
0.352035,-0.00127032,-1.27032,-8.35446,-0.00835446
0.350032,-0.00124709,-1.24709,-8.20167,-0.00820167
0.348024,-0.00123155,-1.23155,-8.09947,-0.00809947
0.346006,-0.00119789,-1.19789,-7.87814,-0.00787814
0.3439965,-0.00115247,-1.15247,-7.57937,-0.00757937
0.342007,-0.00110048,-1.10048,-7.23749,-0.00723749
0.3400113,-0.00106697,-1.06697,-7.01706,-0.00701706
0.337999,-0.0010689,-1.0689,-7.02979,-0.00702979
0.336003,-0.00107795,-1.07795,-7.08927,-0.00708927
0.334049,-0.00105991,-1.05991,-6.97067,-0.00697067
0.33205,-0.00104617,-1.04617,-6.88032,-0.00688032
0.330041,-0.00105965,-1.05965,-6.96892,-0.00696892
0.328028,-0.00105371,-1.05371,-6.92985,-0.00692985
0.326035,-0.00103077,-1.03077,-6.77899,-0.00677899
0.32403,-0.00102262,-1.02262,-6.72544,-0.00672544
0.322044,-0.00101548,-1.01548,-6.67849,-0.00667849
0.320059,-0.000987061,-0.987061,-6.49156,-0.00649156
0.318073,-0.000976957,-0.976957,-6.4251,-0.0064251
0.316067,-0.00099088,-0.99088,-6.51667,-0.00651667
0.314056,-0.000979901,-0.979901,-6.44446,-0.00644446
0.312061,-0.000962159,-0.962159,-6.32778,-0.00632778
0.310062,-0.000937707,-0.937707,-6.16697,-0.00616697
0.3080627,-0.000922909,-0.922909,-6.06965,-0.00606965
0.306102,-0.000935904,-0.935904,-6.15511,-0.00615511
0.304119,-0.0009498,-0.9498,-6.24651,-0.00624651
0.302093,-0.000964599,-0.964599,-6.34383,-0.00634383
0.300099,-0.000952214,-0.952214,-6.26238,-0.00626238
0.298077,-0.000916014,-0.916014,-6.0243,-0.0060243
0.29608,-0.000913733,-0.913733,-6.0093,-0.0060093
0.294097,-0.000936514,-0.936514,-6.15913,-0.00615913
0.292075,-0.000929088,-0.929088,-6.11029,-0.00611029
0.290066,-0.000920098,-0.920098,-6.05116,-0.00605116
0.28806,-0.000929778,-0.929778,-6.11482,-0.00611482
0.2860893,-0.000929301,-0.929301,-6.11168,-0.00611168
0.284104,-0.000924156,-0.924156,-6.07785,-0.00607785
0.2821075,-0.000935321,-0.935321,-6.15128,-0.00615128
0.280115,-0.000920242,-0.920242,-6.05211,-0.00605211
0.278107,-0.00091559,-0.91559,-6.02151,-0.00602151
0.2760857,-0.000922777,-0.922777,-6.06878,-0.00606878
0.274101,-0.000927603,-0.927603,-6.10052,-0.00610052
0.272098,-0.000915775,-0.915775,-6.02273,-0.00602273
0.270095,-0.000918083,-0.918083,-6.03791,-0.00603791
0.268093,-0.000908297,-0.908297,-5.97355,-0.00597355
0.266103,-0.000898829,-0.898829,-5.91128,-0.00591128
0.264088,-0.000898325,-0.898325,-5.90797,-0.00590797
0.26214,-0.000906122,-0.906122,-5.95925,-0.00595925
0.260143,-0.000913495,-0.913495,-6.00774,-0.00600774
0.258121,-0.000910949,-0.910949,-5.99099,-0.00599099
0.2561101,-0.000900314,-0.900314,-5.92105,-0.00592105
0.254092,-0.000890369,-0.890369,-5.85565,-0.00585565
0.252078,-0.000883315,-0.883315,-5.80925,-0.00580925
0.25007,-0.000881803,-0.881803,-5.79931,-0.00579931
0.248113,-0.000897556,-0.897556,-5.90291,-0.00590291
0.246128,-0.000905008,-0.905008,-5.95192,-0.00595192
0.244108,-0.000908562,-0.908562,-5.97529,-0.00597529
0.242117,-0.000874749,-0.874749,-5.75292,-0.00575292
0.240103,-0.000863664,-0.863664,-5.68001,-0.00568001
0.23811,-0.000876073,-0.876073,-5.76163,-0.00576163
0.236123,-0.000907342,-0.907342,-5.96727,-0.00596727
0.23411,-0.00091909,-0.91909,-6.04454,-0.00604454
0.232093,-0.000929911,-0.929911,-6.1157,-0.0061157
0.230088,-0.000927975,-0.927975,-6.10296,-0.00610296
0.228082,-0.000919621,-0.919621,-6.04802,-0.00604802
0.226097,-0.000925429,-0.925429,-6.08622,-0.00608622
0.224105,-0.00091726,-0.91726,-6.0325,-0.0060325
0.222127,-0.000906175,-0.906175,-5.9596,-0.0059596
0.2201324,-0.000905326,-0.905326,-5.95402,-0.00595402
0.218183,-0.000907766,-0.907766,-5.97006,-0.00597006
0.2162043,-0.000897344,-0.897344,-5.90152,-0.00590152
0.214179,-0.000921318,-0.921318,-6.05919,-0.00605919
0.2121321,-0.000931316,-0.931316,-6.12494,-0.00612494
0.2101443,-0.000918878,-0.918878,-6.04314,-0.00604314
0.208139,-0.00091673,-0.91673,-6.02901,-0.00602901
0.206145,-0.000924447,-0.924447,-6.07977,-0.00607977
0.204165,-0.000948315,-0.948315,-6.23674,-0.00623674
0.202166,-0.000972767,-0.972767,-6.39755,-0.00639755
0.20016,-0.000976586,-0.976586,-6.42266,-0.00642266
0.198152,-0.000942163,-0.942163,-6.19628,-0.00619628
0.196166,-0.000936148,-0.936148,-6.15672,-0.00615672
0.194146,-0.000949191,-0.949191,-6.24249,-0.00624249
0.192167,-0.0009607,-0.9607,-6.31819,-0.00631819
0.190169,-0.000972555,-0.972555,-6.39615,-0.00639615
0.188161,-0.000963989,-0.963989,-6.33982,-0.00633982
0.186156,-0.000962265,-0.962265,-6.32848,-0.00632848
0.184195,-0.000953169,-0.953169,-6.26866,-0.00626866
0.182216,-0.000948289,-0.948289,-6.23656,-0.00623656
0.1801884,-0.00097274,-0.97274,-6.39737,-0.00639737
0.1781728,-0.0010095,-1.0095,-6.63911,-0.00663911
0.176149,-0.00102281,-1.02281,-6.72666,-0.00672666
0.174132,-0.000988997,-0.988997,-6.50429,-0.00650429
0.1721705,-0.000974491,-0.974491,-6.40888,-0.00640888
0.170182,-0.00099271,-0.99271,-6.52871,-0.00652871
0.168199,-0.00101525,-1.01525,-6.67696,-0.00667696
0.1661818,-0.00102074,-1.02074,-6.71306,-0.00671306
0.164147,-0.0010222,-1.0222,-6.72265,-0.00672265
0.162135,-0.000999128,-0.999128,-6.57091,-0.00657091
0.160189,-0.00101045,-1.01045,-6.64539,-0.00664539
0.158213,-0.00104718,-1.04718,-6.88695,-0.00688695
0.156186,-0.00107214,-1.07214,-7.05107,-0.00705107
0.154164,-0.00106698,-1.06698,-7.01718,-0.00701718
0.15211,-0.00104281,-1.04281,-6.85817,-0.00685817
0.150144,-0.00102416,-1.02416,-6.73556,-0.00673556
0.148195,-0.00102331,-1.02331,-6.72998,-0.00672998
0.146176,-0.00104442,-1.04442,-6.86881,-0.00686881
0.14419,-0.00106179,-1.06179,-6.98305,-0.00698305
0.142196,-0.00106299,-1.06299,-6.9909,-0.0069909
0.140197,-0.00108495,-1.08495,-7.13531,-0.00713531
0.138195,-0.00108842,-1.08842,-7.15816,-0.00715816
0.136207,-0.00110269,-1.10269,-7.25199,-0.00725199
0.134213,-0.001088,-1.088,-7.15537,-0.00715537
0.132215,-0.00109585,-1.09585,-7.207,-0.007207
0.1301939,-0.0010911,-1.0911,-7.17578,-0.00717578
0.128159,-0.00108696,-1.08696,-7.14857,-0.00714857
0.126178,-0.00109937,-1.09937,-7.23019,-0.00723019
0.124201,-0.00113754,-1.13754,-7.48117,-0.00748117
0.122212,-0.00115098,-1.15098,-7.5696,-0.0075696
0.120212,-0.00111491,-1.11491,-7.3324,-0.0073324
0.118216,-0.00110407,-1.10407,-7.26106,-0.00726106
0.1161947,-0.00111128,-1.11128,-7.3085,-0.0073085
0.114197,-0.0011399,-1.1399,-7.4967,-0.0074967
0.112218,-0.00117391,-1.17391,-7.7204,-0.0077204
0.110208,-0.00117779,-1.17779,-7.74593,-0.00774593
0.108204,-0.00117485,-1.17485,-7.72657,-0.00772657
0.106205,-0.0011588,-1.1588,-7.62105,-0.00762105
0.1042,-0.00116851,-1.16851,-7.68489,-0.00768489
0.102211,-0.00118143,-1.18143,-7.76983,-0.00776983
0.100234,-0.00117665,-1.17665,-7.73843,-0.00773843
0.0982651,-0.00117575,-1.17575,-7.7325,-0.0077325
0.0962401,-0.00118196,-1.18196,-7.77331,-0.00777331
0.0942251,-0.00117803,-1.17803,-7.7475,-0.0077475
0.0922154,-0.0012084,-1.2084,-7.9472,-0.0079472
0.0902667,-0.00121572,-1.21572,-7.99534,-0.00799534
0.0882417,-0.00123712,-1.23712,-8.13609,-0.00813609
0.0862236,-0.00122784,-1.22784,-8.07505,-0.00807505
0.08421579,-0.0012058,-1.2058,-7.93011,-0.00793011
0.0822539,-0.00121179,-1.21179,-7.96953,-0.00796953
0.0802588,-0.00122919,-1.22919,-8.08394,-0.00808394
0.0782568,-0.00125802,-1.25802,-8.27353,-0.00827353
0.0762789,-0.00127292,-1.27292,-8.37155,-0.00837155
0.0742625,-0.00127995,-1.27995,-8.41777,-0.00841777
0.0722575,-0.00126202,-1.26202,-8.29987,-0.00829987
0.0703,-0.00127043,-1.27043,-8.35515,-0.00835515
0.068267,-0.00130262,-1.30262,-8.56689,-0.00856689
0.06629888,-0.0012948,-1.2948,-8.51544,-0.00851544
0.0642767,-0.0012831,-1.2831,-8.43852,-0.00843852
0.0622872,-0.00130058,-1.30058,-8.55346,-0.00855346
0.0602711,-0.00130403,-1.30403,-8.57614,-0.00857614
0.0582619,-0.00131991,-1.31991,-8.68061,-0.00868061
0.0562859,-0.0013419,-1.3419,-8.8252,-0.0088252
0.0542716,-0.0013602,-1.3602,-8.94554,-0.00894554
0.0522782,-0.00134776,-1.34776,-8.86374,-0.00886374
0.0502516,-0.00134629,-1.34629,-8.85408,-0.00885408
0.0482305,-0.00133858,-1.33858,-8.8034,-0.0088034
0.0462178,-0.00134834,-1.34834,-8.86758,-0.00886758
0.0442501,-0.00136052,-1.36052,-8.94763,-0.00894763
0.0422551,-0.00137142,-1.37142,-9.01932,-0.00901932
0.0402452,-0.00137232,-1.37232,-9.02525,-0.00902525
0.0382812,-0.00137879,-1.37879,-9.0678,-0.0090678
0.0362539,-0.00139032,-1.39032,-9.14367,-0.00914367
0.0342338,-0.00139974,-1.39974,-9.20559,-0.00920559
0.0322738,-0.00140634,-1.40634,-9.24902,-0.00924902
0.0302722,-0.00141804,-1.41804,-9.32593,-0.00932593
0.0282873,-0.00143246,-1.43246,-9.42082,-0.00942082
0.02630608,-0.00143626,-1.43626,-9.44576,-0.00944576
0.0243017,-0.00145824,-1.45824,-9.59034,-0.00959034
0.0222997,-0.00145933,-1.45933,-9.5975,-0.0095975
0.0202889,-0.00147147,-1.47147,-9.67738,-0.00967738
0.0182591,-0.00146731,-1.46731,-9.64999,-0.00964999
0.0163103,-0.00145816,-1.45816,-9.58982,-0.00958982
0.01434754,-0.00147264,-1.47264,-9.68505,-0.00968505
0.0123115,-0.00149853,-1.49853,-9.85528,-0.00985528
0.010277,-0.00152345,-1.52345,-10.0192,-0.0100192
0.00825465,-0.00152026,-1.52026,-9.99821,-0.00999821
0.00625874,-0.00148702,-1.48702,-9.77958,-0.00977958
0.00426456,-0.00149256,-1.49256,-9.81603,-0.00981603
0.00229902,-0.00149906,-1.49906,-9.85877,-0.00985877
3.477018E-4,-0.0015426,-1.5426,-10.1452,-0.0101452
-0.00167238,-0.00157835,-1.57835,-10.3803,-0.0103803
-0.00369542,-0.00157297,-1.57297,-10.3449,-0.0103449
-0.00571401,-0.00157522,-1.57522,-10.3597,-0.0103597
-0.00773982,-0.00157326,-1.57326,-10.3468,-0.0103468
-0.00971512,-0.00158594,-1.58594,-10.4301,-0.0104301
-0.0116798,-0.00159455,-1.59455,-10.4868,-0.0104868
-0.0136632,-0.00163314,-1.63314,-10.7406,-0.0107406
-0.0156663,-0.00166409,-1.66409,-10.9441,-0.0109441
-0.0176692,-0.00166695,-1.66695,-10.963,-0.010963
-0.01969582,-0.00166892,-1.66892,-10.9759,-0.0109759
-0.02170465,-0.00167597,-1.67597,-11.0223,-0.0110223
-0.0237156,-0.00170729,-1.70729,-11.2283,-0.0112283
-0.0256958,-0.00170864,-1.70864,-11.2371,-0.0112371
-0.0276796,-0.00172747,-1.72747,-11.361,-0.011361
-0.0296676,-0.00173331,-1.73331,-11.3994,-0.0113994
-0.03165118,-0.00174516,-1.74516,-11.4773,-0.0114773
-0.0336394,-0.00176702,-1.76702,-11.6211,-0.0116211
-0.0356512,-0.00177953,-1.77953,-11.7034,-0.0117034
-0.0376598,-0.00180435,-1.80435,-11.8666,-0.0118666
-0.0396545,-0.00181581,-1.81581,-11.9419,-0.0119419
-0.0416902,-0.0018051,-1.8051,-11.8715,-0.0118715
-0.0437158,-0.00184289,-1.84289,-12.12,-0.01212
-0.0456879,-0.00187898,-1.87898,-12.3574,-0.0123574
-0.0477048,-0.00190094,-1.90094,-12.5018,-0.0125018
-0.0496857,-0.00192237,-1.92237,-12.6427,-0.0126427
-0.051648,-0.00195064,-1.95064,-12.8287,-0.0128287
-0.0536456,-0.00197138,-1.97138,-12.9651,-0.0129651
-0.0556122,-0.00201527,-2.01527,-13.2537,-0.0132537
-0.0576357,-0.00207276,-2.07276,-13.6318,-0.0136318
-0.0596364,-0.00209191,-2.09191,-13.7578,-0.0137578
-0.0616512,-0.00209027,-2.09027,-13.7469,-0.0137469
-0.063646,-0.00208446,-2.08446,-13.7087,-0.0137087
-0.0656797,-0.00212379,-2.12379,-13.9674,-0.0139674
-0.0676715,-0.00220369,-2.20369,-14.4929,-0.0144929
-0.0696509,-0.00225811,-2.25811,-14.8508,-0.0148508
-0.0716574,-0.00228214,-2.28214,-15.0088,-0.0150088
-0.0736528,-0.00230494,-2.30494,-15.1588,-0.0151588
-0.0756355,-0.00234129,-2.34129,-15.3978,-0.0153978
-0.0776132,-0.00240477,-2.40477,-15.8153,-0.0158153
-0.0795876,-0.0024799,-2.4799,-16.3094,-0.0163094
-0.08161854,-0.00254169,-2.54169,-16.7158,-0.0167158
-0.0836707,-0.00260719,-2.60719,-17.1466,-0.0171466
-0.0856716,-0.00265241,-2.65241,-17.444,-0.017444
-0.0876595,-0.00273345,-2.73345,-17.977,-0.017977
-0.0896227,-0.00282532,-2.82532,-18.5811,-0.0185811
-0.0916232,-0.00290228,-2.90228,-19.0873,-0.0190873
-0.0936346,-0.00293588,-2.93588,-19.3083,-0.0193083
-0.0956464,-0.00300979,-3.00979,-19.7944,-0.0197944
-0.0976329,-0.00309771,-3.09771,-20.3725,-0.0203725
-0.099611,-0.00324587,-3.24587,-21.347,-0.021347
-0.101609,-0.00339139,-3.39139,-22.304,-0.022304
-0.103625,-0.00347588,-3.47588,-22.8597,-0.0228597
-0.10562,-0.00355555,-3.55555,-23.3836,-0.0233836
-0.107618,-0.00364158,-3.64158,-23.9494,-0.0239494
-0.109604,-0.00379046,-3.79046,-24.9285,-0.0249285
-0.111585,-0.00399321,-3.99321,-26.2619,-0.0262619
-0.113563,-0.00413342,-4.13342,-27.184,-0.027184
-0.115544,-0.00419876,-4.19876,-27.6138,-0.0276138
-0.117531,-0.00430049,-4.30049,-28.2828,-0.0282828
-0.119566,-0.00440496,-4.40496,-28.9699,-0.0289699
-0.121551,-0.00458648,-4.58648,-30.1637,-0.0301637
-0.123564,-0.00485105,-4.85105,-31.9036,-0.0319036
-0.125574,-0.00497718,-4.97718,-32.7332,-0.0327332
-0.127588,-0.00499853,-4.99853,-32.8736,-0.0328736
-0.129557,-0.0051521,-5.1521,-33.8836,-0.0338836
-0.13156,-0.00532878,-5.32878,-35.0455,-0.0350455
-0.133546,-0.00549795,-5.49795,-36.1581,-0.0361581
-0.135556,-0.00571499,-5.71499,-37.5855,-0.0375855
-0.137582,-0.0057998,-5.7998,-38.1433,-0.0381433
-0.139577,-0.0057736,-5.7736,-37.9709,-0.0379709
-0.141535,-0.00590172,-5.90172,-38.8135,-0.0388135
-0.143541,-0.00615275,-6.15275,-40.4645,-0.0404645
-0.145533,-0.00630379,-6.30379,-41.4578,-0.0414578
-0.147535,-0.00634489,-6.34489,-41.7281,-0.0417281
-0.149555,-0.00632572,-6.32572,-41.602,-0.041602
-0.151572,-0.00632845,-6.32845,-41.62,-0.04162
-0.153543,-0.00639594,-6.39594,-42.0639,-0.0420639
-0.155542,-0.00651706,-6.51706,-42.8604,-0.0428604
-0.157559,-0.00655817,-6.55817,-43.1308,-0.0431308
-0.159583,-0.00638204,-6.38204,-41.9725,-0.0419725
-0.161622,-0.00612358,-6.12358,-40.2727,-0.0402727
-0.163594,-0.00598621,-5.98621,-39.3692,-0.0393692
-0.165591,-0.00591503,-5.91503,-38.9011,-0.0389011
-0.167591,-0.00576257,-5.76257,-37.8984,-0.0378984
-0.16963,-0.00550161,-5.50161,-36.1822,-0.0361822
-0.171625,-0.00517364,-5.17364,-34.0252,-0.0340252
-0.173602,-0.0048955,-4.8955,-32.196,-0.032196
-0.175585,-0.00466989,-4.66989,-30.7122,-0.0307122
-0.177607,-0.00448791,-4.48791,-29.5154,-0.0295154
-0.179658,-0.00430063,-4.30063,-28.2837,-0.0282837
-0.181657,-0.00406669,-4.06669,-26.7452,-0.0267452
-0.18359,-0.00382685,-3.82685,-25.1678,-0.0251678
-0.185607,-0.00366998,-3.66998,-24.1362,-0.0241362
-0.187617,-0.0035412,-3.5412,-23.2892,-0.0232892
-0.189593,-0.00344888,-3.44888,-22.6821,-0.0226821
-0.191606,-0.00330451,-3.30451,-21.7326,-0.0217326
-0.193584,-0.00315289,-3.15289,-20.7355,-0.0207355
-0.195165,-0.00307283,-3.07283,-20.2089,-0.0202089
-0.19526,-0.00307569,-3.07569,-20.2278,-0.0202278